date,acc_x,acc_y,acc_z,gyr_x,gyr_y,gyr_z,mag_x,mag_y,mag_z
2022-02-09 20:17:05.248522,0.001816,-0.000991,0.996845,-0.077423,0.089439,-0.038712,-0.064820,0.205636,-0.279397
2022-02-09 20:17:05.348699,-0.000137,0.000962,1.007588,-0.100311,-0.139442,-0.038712,-0.061467,0.206754,-0.280514
2022-02-09 20:17:05.448875,-0.001114,-0.001235,1.015156,0.029388,0.142845,0.144394,-0.065938,0.206754,-0.276044
2022-02-09 20:17:05.549002,0.002549,0.000962,1.018574,0.082794,-0.063148,-0.015823,-0.068173,0.211224,-0.276044
2022-02-09 20:17:05.649114,0.000595,-0.003188,1.005879,-0.016388,0.104698,-0.130264,-0.068173,0.208989,-0.273809
2022-02-09 20:17:05.749253,0.001084,-0.001967,1.011006,-0.054535,0.066551,0.235947,-0.060350,0.205636,-0.274926
2022-02-09 20:17:05.849357,0.004502,-0.001479,1.011006,-0.153717,0.127586,-0.374405,-0.065938,0.213459,-0.278279
2022-02-09 20:17:05.949505,0.001572,-0.000014,1.005879,0.113312,-0.025002,-0.160782,-0.059232,0.213459,-0.278279
2022-02-09 20:17:06.049635,-0.000625,-0.002944,1.017109,-0.062164,-0.040260,-0.069229,-0.063702,0.213459,-0.276044
2022-02-09 20:17:06.149775,0.003037,-0.000747,1.007832,0.105682,-0.032631,-0.122635,-0.063702,0.204518,-0.267103
2022-02-09 20:17:06.249948,-0.001358,0.003892,1.007588,-0.107941,0.211510,0.228317,-0.060350,0.196695,-0.272691
2022-02-09 20:17:06.350097,0.000595,0.000962,1.012470,0.113312,-0.002113,-0.092117,-0.058115,0.207871,-0.270456
2022-02-09 20:17:06.450250,-0.005752,-0.001479,1.005635,-0.016388,0.081810,-0.343887,-0.058115,0.205636,-0.270456
2022-02-09 20:17:06.550407,0.002060,0.001451,1.011982,0.067535,0.127586,-0.000565,-0.067055,0.207871,-0.274926
2022-02-09 20:17:06.650558,0.003037,-0.003676,0.997334,0.159088,0.264915,0.113876,-0.062585,0.201166,-0.268221
2022-02-09 20:17:06.750728,-0.012100,-0.000258,0.994160,0.075165,0.150475,0.152023,-0.060350,0.205636,-0.274926
2022-02-09 20:17:06.850909,0.002304,-0.000258,1.013447,-0.252899,0.036034,0.113876,-0.067055,0.207871,-0.270456
2022-02-09 20:17:06.951183,0.000351,0.003160,1.015888,-0.184235,-0.047890,0.113876,-0.060350,0.201166,-0.263751
2022-02-09 20:17:07.051361,-0.003067,0.006578,0.997822,0.342194,-0.101295,-0.160782,-0.060350,0.203401,-0.272691
2022-02-09 20:17:07.151540,-0.002334,0.001695,1.012715,-0.054535,-0.093666,0.152023,-0.061467,0.208989,-0.273809
2022-02-09 20:17:07.251712,-0.001114,-0.001723,1.011738,1.585785,-0.177589,0.022324,-0.068173,0.215694,-0.273809
2022-02-09 20:17:07.351880,-0.029190,0.121812,1.018574,0.586334,-0.025002,2.150925,-0.067055,0.207871,-0.277162
2022-02-09 20:17:07.452067,0.017685,-0.009536,1.009785,0.952545,-0.543800,-6.508438,-0.069290,0.207871,-0.283867
2022-02-09 20:17:07.552304,-0.081436,0.064683,1.008564,41.777435,21.634850,-4.265396,-0.065938,0.213459,-0.282750
2022-02-09 20:17:07.652508,-0.052383,0.118638,1.016377,19.430939,26.365074,-3.075211,-0.078231,0.230223,-0.288337
2022-02-09 20:17:07.752676,-0.204239,0.140123,0.946552,24.008575,73.903831,-19.074051,-0.071526,0.227988,-0.295043
2022-02-09 20:17:07.852861,-0.347793,0.100328,0.787617,10.863129,56.196007,-12.940018,-0.075996,0.243634,-0.317395
2022-02-09 20:17:07.953066,-0.454971,0.179673,0.892353,14.090363,74.216637,-11.856644,-0.082701,0.259280,-0.319630
2022-02-09 20:17:08.053230,-0.605117,0.178941,0.704121,8.055511,80.938133,-22.095291,-0.075996,0.270456,-0.350922
2022-02-09 20:17:08.153411,-0.810440,0.149400,0.726094,-12.070831,97.059044,-30.060379,-0.069290,0.265986,-0.371039
2022-02-09 20:17:08.253595,-0.824112,0.045396,0.568867,-15.931305,134.702477,-35.530655,-0.058115,0.272691,-0.411272
2022-02-09 20:17:08.353758,-0.910049,-0.000991,0.349873,-0.260529,120.145592,-22.270767,-0.052527,0.269338,-0.432506
2022-02-09 20:17:08.453948,-0.966934,-0.057143,0.015400,11.412445,102.941307,-14.237015,-0.049174,0.257045,-0.458211
2022-02-09 20:17:08.554114,-1.222305,0.048082,-0.041729,-5.906281,71.141991,-5.196182,-0.037998,0.245869,-0.476092
2022-02-09 20:17:08.654266,-0.941543,-0.034194,-0.048565,-7.531342,58.027061,1.136215,-0.031292,0.227988,-0.500679
2022-02-09 20:17:08.754389,-0.875625,-0.109145,-0.468242,-29.771027,132.505211,-0.832169,-0.045821,0.213459,-0.508502
2022-02-09 20:17:08.854506,-0.879043,-0.003432,-0.498272,37.146393,54.136070,8.902939,-0.031292,0.189990,-0.505149
2022-02-09 20:17:08.954608,-0.868545,-0.106215,-0.783184,-142.510590,173.772606,-42.206375,-0.049174,0.169873,-0.525266
2022-02-09 20:17:09.054721,-0.674453,0.040513,-0.806621,-83.726105,100.705894,8.185776,-0.077114,0.141934,-0.521913
2022-02-09 20:17:09.154834,-0.475723,0.145982,-1.037334,-16.450104,33.376488,5.004318,-0.078231,0.120699,-0.518560
2022-02-09 20:17:09.254962,-0.345596,0.286363,-0.751446,0.532928,-88.007179,25.687607,-0.086054,0.124052,-0.510737
2022-02-09 20:17:09.355067,-0.396621,0.105210,-0.767803,35.803619,48.887047,-3.540604,-0.074878,0.115111,-0.512972
2022-02-09 20:17:09.455223,-0.346084,0.123033,-0.926739,8.818451,59.064659,-13.168900,-0.067055,0.109524,-0.514090
2022-02-09 20:17:09.555360,-0.328506,0.085191,-1.027080,8.528534,29.905113,-6.081192,-0.074878,0.088289,-0.512972
2022-02-09 20:17:09.655510,-0.223770,0.093248,-0.864971,40.777985,74.079308,12.839706,-0.063702,0.101700,-0.510737
2022-02-09 20:17:09.755692,-0.173721,0.098375,-1.019512,6.933990,36.237511,4.516037,-0.067055,0.078231,-0.505149
2022-02-09 20:17:09.855842,0.105576,0.157457,-0.879619,25.893036,201.772484,-16.213028,-0.069290,0.055879,-0.491738
2022-02-09 20:17:09.955989,0.234970,0.033921,-0.982403,-7.035431,126.500877,3.241928,-0.074878,0.036880,-0.452623
2022-02-09 20:17:10.056138,0.599961,0.085923,-0.946026,7.399384,229.093346,-1.724808,-0.062585,0.031292,-0.413507
2022-02-09 20:17:10.156316,0.889023,0.013414,-0.484356,34.735504,226.903709,14.144333,-0.063702,0.014529,-0.358745
2022-02-09 20:17:10.256424,1.055527,-0.020034,-0.147930,20.979706,249.707970,18.882187,-0.061467,0.030175,-0.314042
2022-02-09 20:17:10.356553,0.870957,-0.127944,0.321064,21.033112,190.534386,43.548019,-0.053644,0.064820,-0.277162
2022-02-09 20:17:10.456682,0.912949,-0.136000,0.859394,3.248993,249.707970,47.477158,-0.058115,0.100583,-0.241399
2022-02-09 20:17:10.556789,0.562119,-0.139174,0.913105,-25.521454,143.865379,-7.805435,-0.051409,0.138581,-0.241399
2022-02-09 20:17:10.656902,0.409043,-0.158950,1.068135,5.034271,120.939049,6.904037,-0.048056,0.170991,-0.240281
2022-02-09 20:17:10.757006,0.253769,-0.173842,1.011006,30.226532,133.153709,10.322006,-0.058115,0.192225,-0.257045
2022-02-09 20:17:10.857121,0.050644,-0.117202,0.980732,17.165009,16.423973,8.910568,-0.059232,0.206754,-0.258163
2022-02-09 20:17:10.957296,0.033554,-0.110122,1.040791,3.287140,11.388573,-0.847427,-0.053644,0.207871,-0.272691
2022-02-09 20:17:11.057440,-0.050430,-0.063002,0.920185,7.475677,27.082237,0.914963,-0.063702,0.204518,-0.258163
2022-02-09 20:17:11.157580,0.025986,-0.029067,1.112324,24.000946,-24.225441,3.531845,-0.075996,0.201166,-0.263751
2022-02-09 20:17:11.257744,0.015000,-0.023696,1.092549,1.669708,-15.405861,-2.594559,-0.067055,0.201166,-0.261515
2022-02-09 20:17:11.357890,0.162217,-0.021499,0.944844,4.103485,-41.567055,-10.361282,-0.070408,0.195578,-0.262633
2022-02-09 20:17:11.458044,0.079209,0.007798,0.860127,-9.087738,-49.967018,24.367722,-0.067055,0.183284,-0.261515
2022-02-09 20:17:11.558227,0.310898,0.034654,0.898945,56.601349,5.704674,-42.671768,-0.071526,0.169873,-0.261515
2022-02-09 20:17:11.658493,0.166123,-0.047133,0.815205,-53.170380,-32.404152,52.047165,-0.065938,0.179932,-0.271574
2022-02-09 20:17:11.758737,0.120224,-0.165542,0.968769,-27.169403,79.267296,-6.905167,-0.063702,0.173226,-0.264868
2022-02-09 20:17:11.858928,0.217881,-0.007338,0.973652,-4.525360,71.027550,7.575424,-0.064820,0.181049,-0.259280
2022-02-09 20:17:11.959096,0.134385,-0.020034,0.989033,-7.966217,68.708214,-8.019058,-0.058115,0.196695,-0.263751
2022-02-09 20:17:12.059282,0.017197,0.033189,0.999775,-16.686615,0.112328,0.670822,-0.050291,0.200048,-0.269338
2022-02-09 20:17:12.159468,0.000107,-0.059829,1.006855,-20.432648,0.005516,0.594528,-0.058115,0.201166,-0.272691
2022-02-09 20:17:12.259785,0.000107,-0.051040,1.015156,-4.113373,0.165733,0.152023,-0.061467,0.208989,-0.280514
2022-02-09 20:17:12.360037,0.001816,-0.078139,1.015888,5.301300,-0.162331,-0.252335,-0.061467,0.204518,-0.276044
2022-02-09 20:17:12.460352,0.004013,-0.079604,1.019551,1.334015,-0.032631,-0.221817,-0.052527,0.211224,-0.278279
2022-02-09 20:17:12.560606,0.004502,-0.075942,1.014424,0.288788,-0.047890,0.075729,-0.051409,0.203401,-0.265986
2022-02-09 20:17:12.660801,0.000107,-0.086440,1.013203,-0.146088,-0.025002,0.251205,-0.061467,0.213459,-0.273809
2022-02-09 20:17:12.761005,0.006699,-0.079604,1.012715,-0.268158,0.127586,0.106247,-0.051409,0.207871,-0.274926
2022-02-09 20:17:12.861208,0.005967,-0.083022,1.014668,0.082794,-0.025002,0.037582,-0.063702,0.200048,-0.269338
2022-02-09 20:17:12.961403,0.002549,-0.081557,1.015888,0.014130,0.036034,0.007065,-0.052527,0.206754,-0.267103
2022-02-09 20:17:13.061584,0.000107,-0.082778,1.021260,0.120941,-0.017372,0.083359,-0.060350,0.201166,-0.272691
2022-02-09 20:17:13.161762,0.001328,-0.081313,1.015888,0.098053,-0.017372,-0.046341,-0.060350,0.205636,-0.279397
2022-02-09 20:17:13.261938,-0.000869,-0.085219,0.995381,-0.107941,-0.055519,0.228317,-0.063702,0.197813,-0.264868
2022-02-09 20:17:13.362107,0.000840,-0.080092,1.023701,0.037018,-0.192848,0.182541,-0.062585,0.210106,-0.265986
2022-02-09 20:17:13.462314,0.001084,-0.081557,1.012226,-0.024017,0.211510,0.037582,-0.059232,0.208989,-0.276044
2022-02-09 20:17:13.562518,0.000595,-0.076918,1.015644,0.120941,0.180992,-0.008194,-0.064820,0.198931,-0.274926
2022-02-09 20:17:13.662697,0.000351,-0.082045,1.011494,0.090424,0.036034,-0.084488,-0.059232,0.204518,-0.276044
2022-02-09 20:17:13.762866,0.003281,-0.081557,1.008076,-0.069794,0.127586,0.228317,-0.060350,0.203401,-0.274926
2022-02-09 20:17:13.863044,0.005234,-0.080825,1.002705,-0.016388,0.013145,-0.023453,-0.055879,0.207871,-0.272691
2022-02-09 20:17:13.963214,0.001084,-0.079848,1.024433,-0.008759,0.211510,0.007065,-0.055879,0.207871,-0.279397
2022-02-09 20:17:14.063424,0.002549,-0.080825,1.010761,0.159088,-0.055519,-0.069229,-0.056997,0.202283,-0.264868
2022-02-09 20:17:14.163604,-0.002090,-0.079848,1.014668,-0.092682,-0.124184,0.304611,-0.050291,0.206754,-0.264868
2022-02-09 20:17:14.263788,0.002793,-0.087417,1.011006,-3.235992,0.066551,0.319870,-0.046939,0.207871,-0.270456
2022-02-09 20:17:14.363956,-0.001358,-0.073500,1.015644,1.585785,-0.047890,0.098618,-0.056997,0.215694,-0.273809
2022-02-09 20:17:14.464169,0.000107,-0.080825,1.014179,0.807587,-0.009743,0.022324,-0.049174,0.210106,-0.279397
2022-02-09 20:17:14.564331,0.003037,-0.086440,1.013935,0.723663,0.020775,0.037582,-0.060350,0.201166,-0.272691
2022-02-09 20:17:14.664517,-0.003799,-0.078872,1.015400,0.006500,-0.093666,0.060471,-0.060350,0.203401,-0.268221
2022-02-09 20:17:14.764687,0.002549,-0.077895,1.013691,-1.572784,0.081810,0.083359,-0.052527,0.211224,-0.280514
2022-02-09 20:17:14.864869,0.001328,-0.088881,1.009541,-0.596222,0.280174,0.113876,-0.063702,0.204518,-0.267103
2022-02-09 20:17:14.965030,0.002793,-0.086684,1.012470,1.356903,0.058922,-0.153152,-0.061467,0.202283,-0.269338
2022-02-09 20:17:15.065172,0.000107,-0.077407,0.998310,1.272980,-0.017372,-0.130264,-0.051409,0.201166,-0.272691
2022-02-09 20:17:15.165342,0.002304,-0.079604,1.009785,0.754181,-0.131813,-0.015823,-0.055879,0.212342,-0.270456
