acc_x,acc_y,acc_z,gyr_x,gyr_y,gyr_z
 0.001,-0.001, 1.003,-0.003, 0.001, 0.000
 0.004,-0.001, 1.000,-0.003, 0.005, 0.001
 0.001,-0.000, 1.007,-0.000, 0.001, 0.000
-0.000,-0.000, 0.994,-0.000, 0.003, 0.006
-0.001,-0.001, 0.998, 0.004,-0.004, 0.000
-0.003, 0.003, 0.999, 0.001,-0.001,-0.006
 0.005, 0.001, 1.003,-0.005,-0.000, 0.001
-0.002,-0.001, 1.001,-0.003,-0.037, 0.002
-0.001,-0.004, 1.003, 0.001, 0.002,-0.002
-0.002,-0.001, 1.002, 0.004, 0.031,-0.005
 0.001,-0.002, 1.001,-0.004, 0.004, 0.002
 0.000, 0.002, 0.996, 0.001, 0.001,-0.000
 0.002,-0.002, 1.001, 0.000, 0.002,-0.004
-0.000, 0.012, 1.005,-0.004,-0.000,-0.001
-0.002, 0.002, 1.000,-0.001, 0.001,-0.005
 0.000,-0.001, 1.003, 0.001,-0.001, 0.001
 0.004, 0.002, 1.005,-0.003, 0.003,-0.001
-0.003,-0.000, 0.999,-0.003,-0.036,-0.002
 0.004,-0.001, 0.997,-0.002, 0.001,-0.001
 0.002, 0.013, 0.982, 0.002, 0.000,-0.001
-0.002,-0.001, 1.007,-0.003,-0.001,-0.002
-0.001,-0.002, 0.997, 0.002, 0.003,-0.008
 0.001, 0.000, 1.000, 0.003, 0.004,-0.004
-0.004, 0.003, 0.994, 0.002, 0.003, 0.000
 0.003,-0.002, 1.004,-0.001,-0.003,-0.003
 0.003, 0.001, 0.998,-0.003, 0.001, 0.001
 0.003, 0.001, 0.986, 0.001, 0.004,-0.001
-0.001, 0.002, 0.997,-0.002, 0.001, 0.000
 0.002, 0.004, 1.005, 0.001, 0.001, 0.003
 0.001,-0.005, 1.000, 0.002, 0.003,-0.001
-0.000,-0.001, 1.003,-0.002, 0.003,-0.004
-0.001, 0.001, 0.999,-0.001,-0.001,-0.001
-0.000,-0.008, 0.999, 0.001, 0.004, 0.002
-0.004,-0.000, 1.004, 0.000, 0.000,-0.003
 0.001,-0.002, 1.000,-0.002,-0.037, 0.001
-0.001,-0.004, 0.999, 0.000,-0.037, 0.003
-0.001,-0.000, 0.999, 0.003,-0.002,-0.001
 0.004,-0.001, 0.999, 0.001,-0.002,-0.001
 0.003, 0.000, 1.006, 0.002, 0.030,-0.000
 0.001, 0.000, 1.001,-0.002,-0.004,-0.002
 0.001,-0.001, 1.003, 0.001, 0.002, 0.003
 0.000,-0.003, 0.998,-0.003,-0.000,-0.001
 0.003,-0.000, 1.001, 0.001,-0.037, 0.002
-0.003,-0.016, 1.006, 0.002,-0.001, 0.000
 0.003, 0.001, 1.000, 0.003, 0.000,-0.001
 0.002, 0.003, 1.003, 0.000, 0.001, 0.004
 0.000, 0.002, 1.007,-0.001, 0.006,-0.002
-0.000,-0.001, 1.001, 0.001, 0.003, 0.000
 0.004,-0.000, 0.998,-0.001,-0.000, 0.003
 0.002, 0.001, 1.001,-0.001,-0.001,-0.001
-0.001, 0.006, 1.005,-0.038,-0.002,-0.000
-0.003,-0.001, 1.003,-0.004,-0.000, 0.005
-0.001,-0.003, 1.001,-0.002,-0.034, 0.001
-0.003, 0.001, 1.005,-0.001,-0.001,-0.002
-0.003,-0.001, 0.996,-0.002,-0.005,-0.000
-0.000, 0.001, 0.999,-0.036, 0.001, 0.003
 0.002,-0.001, 1.002,-0.002,-0.003,-0.001
-0.001, 0.003, 1.008,-0.001,-0.000,-0.002
 0.001,-0.000, 1.004,-0.003,-0.004, 0.001
 0.005,-0.006, 1.009,-0.004, 0.001,-0.001
-0.001,-0.000, 1.011,-0.001, 0.030, 0.000
-0.002, 0.002, 1.012,-0.006,-0.006, 0.003
-0.003, 0.003, 1.000, 0.028,-0.003,-0.006
-0.003,-0.000, 1.002,-0.001, 0.001,-0.003
 0.003,-0.002, 0.998,-0.007,-0.002,-0.001
-0.004,-0.001, 1.007,-0.008,-0.003,-0.003
 0.000,-0.016, 0.998,-0.007,-0.007, 0.001
-0.001,-0.003, 1.020, 0.000,-0.009,-0.003
 0.004, 0.013, 0.997,-0.024,-0.012, 0.003
 0.001,-0.005, 0.987,-0.018,-0.009, 0.002
-0.001,-0.008, 0.984,-0.001,-0.004, 0.002
 0.005,-0.008, 0.986,-0.007,-0.002, 0.002
 0.002,-0.007, 0.995, 0.013,-0.037,-0.001
 0.002, 0.002, 1.015, 0.012,-0.036,-0.003
 0.004, 0.007, 1.001,-0.006,-0.003, 0.004
-0.003,-0.005, 0.996,-0.009,-0.003, 0.004
 0.002,-0.005, 0.999, 0.004,-0.003,-0.002
 0.005,-0.002, 1.004, 0.006,-0.002,-0.001
 0.002, 0.002, 1.002, 0.003,-0.005,-0.003
-0.003,-0.001, 0.999,-0.000, 0.001,-0.004
-0.001, 0.001, 1.004, 0.004,-0.001, 0.001
-0.001, 0.001, 1.003, 0.029,-0.001,-0.002
 0.001,-0.003, 0.996,-0.003,-0.000,-0.002
-0.001, 0.002, 0.995, 0.011, 0.001,-0.005
-0.000, 0.001, 1.007,-0.000,-0.005, 0.002
 0.001,-0.003, 1.001,-0.009, 0.000,-0.000
-0.000,-0.005, 1.001,-0.038, 0.000,-0.001
-0.001,-0.002, 0.999,-0.000,-0.004, 0.000
-0.001,-0.001, 1.006,-0.000,-0.001,-0.001
 0.001, 0.001, 1.004,-0.006, 0.002, 0.004
 0.000,-0.002, 1.003,-0.004,-0.007,-0.000
 0.003,-0.003, 1.003,-0.001,-0.008,-0.001
 0.004,-0.001, 1.000,-0.005, 0.001,-0.001
 0.000,-0.002, 1.003,-0.003,-0.005, 0.003
 0.001,-0.001, 1.005,-0.011,-0.001, 0.002
 0.001, 0.003, 0.993,-0.005,-0.003, 0.004
 0.002, 0.013, 0.991,-0.003,-0.001,-0.000
 0.000,-0.004, 1.003, 0.005,-0.006,-0.001
-0.002,-0.002, 1.005,-0.000,-0.000,-0.001
 0.002, 0.001, 1.006,-0.003,-0.002,-0.000
 0.005,-0.003, 0.998,-0.001, 0.031, 0.000
 0.003,-0.003, 0.983, 0.002, 0.003, 0.002
 0.004,-0.006, 0.995,-0.004, 0.000, 0.002
-0.002, 0.001, 0.998, 0.000, 0.000, 0.000
 0.002,-0.001, 0.992, 0.002, 0.001,-0.001
 0.002,-0.001, 1.000,-0.001, 0.001, 0.005
-0.002,-0.004, 1.002, 0.029,-0.005, 0.002
 0.003,-0.005, 1.012,-0.003, 0.030, 0.002
 0.003,-0.005, 0.999, 0.005,-0.001,-0.001
-0.001, 0.000, 1.003, 0.001,-0.003,-0.005
 0.005,-0.003, 1.000,-0.004, 0.001,-0.001
 0.005,-0.005, 1.001,-0.007, 0.000, 0.000
 0.000,-0.001, 0.982,-0.003, 0.001, 0.002
-0.003, 0.013, 1.011, 0.001,-0.002, 0.002
 0.002,-0.001, 1.007,-0.000,-0.001, 0.001
 0.001,-0.002, 1.001,-0.004,-0.001,-0.000
 0.003, 0.003, 1.002,-0.002, 0.002,-0.001
 0.003, 0.001, 0.996, 0.001,-0.002, 0.004
 0.003,-0.004, 1.001,-0.000,-0.001, 0.002
 0.003, 0.011, 1.000, 0.001,-0.005, 0.004
 0.004,-0.004, 0.997,-0.003,-0.002, 0.001
 0.000,-0.000, 0.999, 0.000,-0.036,-0.006
 0.004,-0.001, 1.004,-0.003,-0.002,-0.001
 0.002,-0.000, 0.996,-0.000,-0.001,-0.000
 0.002,-0.003, 0.999,-0.000, 0.003, 0.001
 0.005, 0.003, 1.012, 0.000, 0.005, 0.004
-0.001, 0.002, 0.998,-0.000, 0.001, 0.001
 0.001,-0.001, 0.999,-0.004, 0.001,-0.002
 0.001,-0.000, 1.000, 0.001, 0.005,-0.002
-0.001, 0.001, 0.988, 0.003, 0.000,-0.002
 0.003, 0.002, 0.999,-0.001,-0.003, 0.000
 0.002, 0.001, 1.000, 0.002,-0.000,-0.004
 0.000,-0.004, 1.004,-0.003,-0.001, 0.001
 0.001,-0.002, 0.997,-0.001, 0.031, 0.002
 0.004, 0.002, 0.998,-0.003, 0.002,-0.002
 0.007,-0.005, 0.998, 0.001, 0.005,-0.004
 0.001, 0.006, 1.004, 0.012,-0.005,-0.001
-0.001, 0.001, 1.004,-0.014,-0.001, 0.004
 0.004,-0.002, 0.990,-0.014,-0.006, 0.004
-0.005,-0.005, 0.996, 0.022, 0.005,-0.002
-0.005, 0.003, 1.006, 0.006,-0.003, 0.002
 0.004, 0.013, 1.006,-0.016, 0.030, 0.005
 0.004,-0.007, 0.990, 0.000,-0.003,-0.001
-0.001,-0.000, 0.994, 0.010,-0.002, 0.004
 0.003, 0.002, 1.007,-0.001, 0.004, 0.003
 0.004,-0.002, 0.999,-0.007, 0.001, 0.003
 0.002,-0.004, 1.008, 0.004,-0.001, 0.002
 0.020, 0.002, 0.998,-0.018, 0.003, 0.007
-0.006,-0.005, 1.010,-0.044, 0.004, 0.005
 0.000, 0.000, 0.999,-0.050, 0.001, 0.005
 0.004,-0.014, 0.989,-0.010, 0.005,-0.001
 0.005, 0.003, 1.006,-0.006, 0.007,-0.002
 0.007, 0.008, 1.002,-0.054, 0.011, 0.017
 0.009, 0.016, 1.009,-0.128, 0.014, 0.035
-0.002,-0.006, 1.004,-0.158, 0.007, 0.032
 0.008, 0.238, 0.992,-0.213, 0.058,-0.140
 0.096, 0.017, 1.036,-0.645, 0.010, 0.016
-0.032,-0.018, 0.995,-0.644, 0.001,-0.011
 0.006,-0.111, 0.984,-0.476, 0.005, 0.001
-0.006,-0.109, 0.979,-0.187, 0.002,-0.003
 0.010,-0.112, 0.984, 0.047, 0.014, 0.002
 0.004,-0.049, 1.004, 0.137, 0.015, 0.022
 0.021,-0.034, 1.006, 0.183, 0.021, 0.017
-0.001, 0.028, 1.019, 0.066, 0.026, 0.010
 0.016,-0.006, 1.052,-0.093, 0.102, 0.143
 0.070,-0.127, 1.062,-0.106, 0.299, 0.326
 0.028,-0.018, 1.057,-0.005, 0.399, 0.266
 0.000, 0.078, 1.054, 0.134, 0.494, 0.025
 0.016,-0.007, 1.090, 0.317, 0.639,-0.121
 0.029,-0.001, 1.092, 0.333, 0.806,-0.151
 0.027,-0.024, 1.098, 0.231, 0.947,-0.157
 0.011,-0.035, 1.073, 0.250, 1.077,-0.102
-0.019,-0.030, 1.033, 0.326, 1.172,-0.123
-0.038,-0.043, 1.026, 0.536, 1.249,-0.155
-0.082,-0.005, 0.977, 0.343, 1.219,-0.052
-0.093,-0.000, 0.980, 0.058, 1.139, 0.109
-0.056, 0.003, 1.057,-0.010, 1.178, 0.100
-0.035,-0.059, 1.105, 0.251, 1.370, 0.035
-0.034,-0.058, 1.115, 0.569, 1.570, 0.013
-0.083,-0.008, 1.058, 0.601, 1.735, 0.029
-0.105, 0.006, 1.020, 0.564, 1.791, 0.049
-0.149, 0.040, 0.842, 0.112, 1.608, 0.114
-0.111, 0.061, 1.003, 0.072, 1.659,-0.019
-0.201, 0.007, 0.939, 0.016, 1.617, 0.000
-0.235, 0.002, 0.854, 0.008, 1.333, 0.056
-0.446,-0.260, 0.785,-0.650, 1.078, 0.563
-0.220,-0.212, 0.961,-0.054, 1.035, 0.638
-0.298, 0.199, 0.944, 0.070, 1.008, 0.482
-0.241, 0.176, 1.026,-0.017, 1.050, 0.215
-0.263, 0.087, 0.984, 0.134, 1.103,-0.088
-0.330, 0.064, 0.855,-0.003, 1.020,-0.361
-0.332,-0.075, 0.892, 0.236, 0.900,-0.474
-0.327, 0.043, 0.913, 0.182, 0.785,-0.472
-0.290, 0.077, 0.843, 0.194, 0.742,-0.446
-0.303,-0.062, 0.958, 0.196, 0.714,-0.347
-0.396,-0.122, 0.939, 0.213, 0.717,-0.071
-0.309,-0.081, 0.959, 0.037, 0.743, 0.101
-0.313, 0.012, 0.956,-0.023, 0.764, 0.169
-0.334, 0.012, 0.937, 0.016, 0.772, 0.192
-0.379, 0.081, 1.033, 0.071, 0.806, 0.115
-0.329, 0.097, 1.043, 0.152, 0.924, 0.109
-0.335, 0.056, 0.970, 0.153, 1.036, 0.200
-0.348, 0.004, 0.993, 0.080, 1.138, 0.263
-0.355, 0.052, 0.985,-0.121, 1.291, 0.184
-0.363, 0.057, 0.977,-0.254, 1.402, 0.284
-0.416, 0.094, 0.882,-0.217, 1.432, 0.187
-0.448, 0.103, 0.866,-0.209, 1.437, 0.017
-0.463, 0.032, 0.909,-0.142, 1.465,-0.056
-0.434, 0.022, 0.906,-0.129, 1.518,-0.090
-0.428, 0.012, 0.941,-0.092, 1.587,-0.086
-0.483, 0.037, 0.907,-0.048, 1.647,-0.069
-0.463, 0.061, 0.880,-0.004, 1.678,-0.072
-0.223, 0.120, 1.228,-0.028, 1.950,-0.093
-0.560, 0.031, 0.593,-0.303, 1.856, 0.069
-0.638,-0.057, 0.863, 0.082, 1.783, 0.025
-0.638, 0.062, 0.785, 0.417, 1.780,-0.070
-0.620, 0.069, 0.745, 0.281, 1.774, 0.024
-0.612,-0.031, 0.767, 0.145, 1.803, 0.160
-0.559, 0.046, 0.745,-0.049, 1.803, 0.132
-0.588,-0.003, 0.782, 0.128, 1.700, 0.007
-0.559, 0.043, 0.787, 0.297, 1.667,-0.143
-0.600, 0.056, 0.739, 0.354, 1.638,-0.094
-0.651, 0.045, 0.727, 0.337, 1.533, 0.041
-0.693, 0.030, 0.751, 0.523, 1.470, 0.144
-0.756, 0.113, 0.744, 0.616, 1.517, 0.268
-0.699, 0.037, 0.757, 0.681, 1.655, 0.306
-0.698, 0.022, 0.817, 0.712, 1.922, 0.342
-0.714,-0.029, 0.812, 0.758, 2.155, 0.311
-0.616, 0.060, 0.712, 0.772, 2.228, 0.233
-0.727, 0.035, 0.636, 0.829, 2.219, 0.212
-0.649, 0.048, 0.542, 0.791, 2.034, 0.210
-0.723, 0.069, 0.508, 0.685, 1.966, 0.243
-0.825, 0.194, 0.499, 0.499, 1.940, 0.274
-0.704, 0.145, 0.570, 0.417, 2.057, 0.215
-0.747, 0.231, 0.562, 0.420, 2.312, 0.174
-0.851, 0.141, 0.591, 0.530, 2.605, 0.234
-0.863, 0.133, 0.528, 0.653, 2.739, 0.322
-0.986, 0.172, 0.451, 0.667, 2.600, 0.476
-0.914, 0.131, 0.480, 0.678, 2.616, 0.561
-0.847, 0.095, 0.448, 0.836, 2.879, 0.589
-0.926, 0.111, 0.236, 0.771, 3.011, 0.590
-0.973, 0.120, 0.113, 0.456, 2.837, 0.532
-0.952, 0.124, 0.148, 0.212, 2.540, 0.424
-0.932, 0.169, 0.199, 0.106, 2.191, 0.310
-0.855, 0.191, 0.221, 0.070, 2.074, 0.260
-0.891, 0.101, 0.275, 0.118, 2.097, 0.277
-0.914, 0.138, 0.278, 0.144, 2.021, 0.324
-0.954, 0.174, 0.245, 0.199, 1.809, 0.386
-0.974, 0.200, 0.221, 0.214, 1.597, 0.430
-0.932, 0.188, 0.233, 0.341, 1.415, 0.431
-0.911, 0.195, 0.236, 0.573, 1.348, 0.389
-0.931, 0.205, 0.187, 0.696, 1.291, 0.341
-0.926, 0.157, 0.204, 0.741, 1.151, 0.317
-0.885, 0.144, 0.172, 0.835, 0.960, 0.155
-0.877, 0.130, 0.161, 0.922, 0.703, 0.070
-0.916, 0.158, 0.133, 0.921, 0.307, 0.010
-0.938, 0.210, 0.182, 0.913,-0.021,-0.010
-0.909, 0.226, 0.249, 0.892, 0.053,-0.012
-0.823, 0.223, 0.226, 0.893, 0.569,-0.042
-0.890, 0.232, 0.177, 0.800, 0.993,-0.011
-1.001, 0.303, 0.078, 0.631, 1.196,-0.032
-0.964, 0.350, 0.090, 0.348, 1.387,-0.064
-0.884, 0.349, 0.150, 0.154, 1.647,-0.070
-0.816, 0.389, 0.197,-0.067, 2.043,-0.024
-0.830, 0.330, 0.218,-0.288, 2.424, 0.107
-0.764, 0.352, 0.154,-0.593, 2.743, 0.240
-0.852, 0.217, 0.064,-0.832, 2.822, 0.329
-0.848, 0.218,-0.035,-0.974, 2.853, 0.351
-0.902, 0.204,-0.055,-1.011, 2.884, 0.332
-0.928, 0.187,-0.105,-0.938, 2.881, 0.267
-0.980, 0.228,-0.120,-0.773, 2.827, 0.189
-0.961, 0.254,-0.145,-0.593, 2.734, 0.114
-1.008, 0.277,-0.108,-0.343, 2.772, 0.050
-0.988, 0.194,-0.105,-0.060, 2.852, 0.028
-1.026, 0.144,-0.196, 0.063, 2.824, 0.175
-1.099, 0.141,-0.390, 0.117, 2.561, 0.377
-1.080, 0.189,-0.467, 0.045, 2.247, 0.496
-0.957, 0.264,-0.481,-0.034, 1.910, 0.437
-0.961, 0.265,-0.435,-0.002, 1.548, 0.350
-0.917, 0.309,-0.392, 0.009, 1.241, 0.157
-0.871, 0.297,-0.321, 0.055, 1.067, 0.006
-0.864, 0.263,-0.320, 0.097, 0.944,-0.108
-0.872, 0.222,-0.342, 0.150, 0.804,-0.187
-0.897, 0.233,-0.388, 0.195, 0.642,-0.193
-0.911, 0.234,-0.416, 0.241, 0.413,-0.229
-0.915, 0.223,-0.394, 0.321, 0.302,-0.195
-0.906, 0.225,-0.362, 0.417, 0.299,-0.174
-0.891, 0.233,-0.333, 0.499, 0.391,-0.165
-0.887, 0.235,-0.319, 0.567, 0.501,-0.166
-0.859, 0.247,-0.330, 0.603, 0.630,-0.192
-0.835, 0.243,-0.299, 0.562, 0.798,-0.231
-0.830, 0.238,-0.294, 0.450, 1.045,-0.278
-0.823, 0.216,-0.292, 0.352, 1.277,-0.315
-0.811, 0.275,-0.366, 0.273, 1.399,-0.370
-0.850, 0.192,-0.400, 0.293, 1.394,-0.346
-0.803, 0.254,-0.408, 0.244, 1.340,-0.354
-0.858, 0.236,-0.406, 0.255, 1.373,-0.308
-0.819, 0.272,-0.408, 0.242, 1.470,-0.303
-0.784, 0.221,-0.416, 0.309, 1.605,-0.287
-0.836, 0.193,-0.459, 0.411, 1.656,-0.301
-0.862, 0.180,-0.527, 0.493, 1.629,-0.301
-0.882, 0.140,-0.563, 0.543, 1.594,-0.288
-0.904, 0.129,-0.579, 0.560, 1.546,-0.275
-0.897, 0.160,-0.583, 0.527, 1.508,-0.252
-0.875, 0.171,-0.605, 0.428, 1.517,-0.236
-0.840, 0.158,-0.623, 0.347, 1.532,-0.213
-0.809, 0.156,-0.622, 0.316, 1.562,-0.196
-0.776, 0.157,-0.602, 0.359, 1.583,-0.192
-0.753, 0.150,-0.600, 0.447, 1.563,-0.204
-0.730, 0.164,-0.597, 0.545, 1.552,-0.252
-0.733, 0.168,-0.598, 0.610, 1.552,-0.299
-0.722, 0.161,-0.616, 0.580, 1.585,-0.334
-0.747, 0.128,-0.673, 0.448, 1.593,-0.292
-0.761, 0.098,-0.724, 0.270, 1.570,-0.196
-0.785, 0.118,-0.736, 0.183, 1.582,-0.149
-0.741, 0.127,-0.743, 0.249, 1.649,-0.146
-0.721, 0.131,-0.750, 0.343, 1.718,-0.180
-0.694, 0.134,-0.745, 0.453, 1.791,-0.211
-0.639, 0.120,-0.711, 0.491, 1.923,-0.241
-0.617, 0.090,-0.737, 0.429, 2.012,-0.254
-0.600, 0.088,-0.733, 0.317, 2.142,-0.256
-0.593, 0.100,-0.725, 0.212, 2.231,-0.260
-0.591, 0.103,-0.744, 0.141, 2.277,-0.242
-0.571, 0.091,-0.781, 0.007, 2.268,-0.160
-0.552, 0.090,-0.795,-0.149, 2.249,-0.010
-0.532, 0.097,-0.798,-0.373, 2.255, 0.141
-0.492, 0.100,-0.815,-0.501, 2.278, 0.270
-0.501, 0.100,-0.882,-0.683, 2.199, 0.387
-0.496, 0.091,-0.970,-0.836, 2.007, 0.486
-0.595, 0.058,-0.939,-0.905, 1.918, 0.662
-0.465, 0.091,-0.846,-0.767, 2.012, 0.752
-0.460, 0.131,-0.864,-0.619, 2.047, 0.738
-0.399, 0.152,-0.868,-0.429, 2.006, 0.641
-0.374, 0.156,-0.924,-0.387, 1.850, 0.545
-0.370, 0.161,-0.932,-0.376, 1.729, 0.464
-0.411, 0.218,-0.887, 0.054, 1.632, 0.091
-0.328, 0.243,-0.884, 0.391, 1.707,-0.032
-0.293, 0.265,-0.893, 0.420, 1.830,-0.203
-0.288, 0.304,-0.896, 0.219, 1.954,-0.274
-0.297, 0.197,-0.965, 0.062, 1.983,-0.259
-0.298, 0.094,-1.034,-0.078, 1.867,-0.091
-0.289, 0.071,-1.103,-0.277, 1.499, 0.014
-0.270, 0.232,-1.106,-0.359, 1.036, 0.074
-0.268, 0.120,-1.082,-0.226, 0.506, 0.048
-0.262, 0.140,-1.055, 0.002, 0.033, 0.063
-0.254, 0.101,-1.036, 0.190,-0.232, 0.139
-0.235, 0.144,-0.994, 0.302,-0.354, 0.137
-0.165, 0.134,-0.692, 0.468, 0.089, 0.032
-0.064, 0.307,-0.823, 0.424, 0.675,-0.304
-0.140, 0.221,-0.943, 0.189, 0.783,-0.538
-0.282, 0.082,-0.976, 0.041, 0.753,-0.525
-0.210, 0.063,-0.954, 0.065, 0.687,-0.522
-0.172, 0.090,-0.992, 0.146, 0.693,-0.499
-0.201, 0.099,-1.008, 0.112, 0.696,-0.425
-0.172, 0.136,-0.998, 0.082, 0.794,-0.377
-0.179, 0.138,-0.989, 0.131, 0.909,-0.333
-0.216, 0.131,-1.013, 0.265, 0.988,-0.325
-0.233, 0.152,-1.036, 0.346, 0.966,-0.352
-0.225, 0.150,-1.070, 0.317, 0.795,-0.393
-0.200, 0.113,-1.070, 0.261, 0.558,-0.377
-0.163, 0.082,-1.041, 0.252, 0.359,-0.314
-0.143, 0.119,-1.038, 0.256, 0.136,-0.178
-0.178, 0.072,-1.017, 0.383, 0.037, 0.000
-0.156, 0.122,-1.023, 0.549, 0.039, 0.093
-0.202, 0.133,-0.993, 0.719, 0.160, 0.061
-0.177, 0.165,-0.977, 0.811, 0.393,-0.141
-0.176, 0.143,-0.999, 0.855, 0.548,-0.229
-0.146, 0.121,-1.019, 0.829, 0.711,-0.313
-0.144, 0.102,-1.044, 0.752, 0.742,-0.303
-0.141, 0.078,-1.056, 0.678, 0.721,-0.294
-0.122, 0.063,-1.062, 0.674, 0.725,-0.215
-0.110, 0.074,-1.025, 0.720, 0.779,-0.158
-0.120, 0.076,-1.005, 0.764, 0.827,-0.166
-0.113, 0.043,-0.997, 0.817, 0.846,-0.147
-0.097, 0.042,-1.002, 0.790, 0.856,-0.126
-0.088, 0.007,-1.002, 0.730, 0.816,-0.095
-0.051,-0.011,-0.992, 0.711, 0.874,-0.090
-0.050,-0.013,-1.009, 0.710, 0.899,-0.109
-0.028,-0.005,-0.997, 0.668, 0.947,-0.170
-0.017,-0.022,-1.018, 0.650, 0.994,-0.214
-0.015,-0.037,-1.027, 0.568, 1.040,-0.211
 0.014,-0.044,-1.032, 0.504, 1.069,-0.204
 0.003,-0.107,-1.027, 0.469, 1.119,-0.140
 0.021,-0.009,-1.095, 0.352, 1.111,-0.136
 0.024,-0.027,-1.057, 0.335, 1.045,-0.151
 0.056,-0.062,-1.017, 0.328, 1.033,-0.136
 0.023,-0.081,-1.020, 0.398, 1.016,-0.040
 0.031,-0.164,-1.036, 0.571, 0.894, 0.062
 0.048,-0.004,-1.050, 0.536, 0.689,-0.008
 0.061,-0.055,-1.001, 0.460, 0.582, 0.000
 0.058,-0.074,-1.000, 0.337, 0.602, 0.090
 0.054,-0.038,-1.024, 0.118, 0.595, 0.126
 0.043,-0.040,-1.013,-0.011, 0.550, 0.106
 0.062,-0.054,-0.998,-0.121, 0.564, 0.062
 0.061,-0.049,-1.013,-0.152, 0.579, 0.030
 0.079,-0.062,-1.005,-0.160, 0.587,-0.016
 0.088,-0.067,-1.009,-0.139, 0.602,-0.071
 0.112,-0.084,-1.007,-0.119, 0.623,-0.090
 0.123,-0.089,-1.034,-0.151, 0.614,-0.094
 0.132,-0.089,-1.055,-0.243, 0.578,-0.078
 0.141,-0.079,-1.026,-0.341, 0.595,-0.083
 0.120,-0.024,-1.044,-0.417, 0.640,-0.133
 0.115,-0.023,-1.022,-0.381, 0.682,-0.209
 0.121,-0.048,-1.017,-0.307, 0.725,-0.228
 0.125,-0.055,-0.998,-0.145, 0.761,-0.294
 0.130,-0.057,-0.993,-0.053, 0.749,-0.312
 0.135,-0.041,-1.006,-0.044, 0.722,-0.307
 0.163,-0.021,-0.989,-0.059, 0.714,-0.301
 0.176,-0.042,-0.980,-0.035, 0.728,-0.273
 0.167,-0.064,-0.988,-0.004, 0.710,-0.228
 0.196,-0.072,-0.969, 0.161, 0.673,-0.218
 0.180,-0.066,-0.971, 0.291, 0.634,-0.230
 0.107, 0.139,-0.986, 0.140, 0.527,-0.252
 0.166, 0.148,-0.930,-0.039, 0.522,-0.062
 0.177, 0.048,-1.038,-0.105, 0.497, 0.191
 0.209, 0.096,-1.038,-0.268, 0.437, 0.292
 0.208, 0.047,-0.990,-0.453, 0.377, 0.254
 0.226, 0.000,-0.901,-0.525, 0.901,-0.093
 0.254, 0.047,-1.001,-0.683, 0.999,-0.527
 0.216,-0.045,-0.935,-0.766, 1.040,-0.564
 0.268,-0.053,-0.950,-0.713, 1.040,-0.533
 0.256,-0.059,-0.989,-0.576, 0.901,-0.381
 0.271,-0.072,-0.968,-0.369, 0.807,-0.248
 0.291,-0.074,-0.962,-0.165, 0.783,-0.145
 0.317,-0.063,-0.961, 0.007, 0.813,-0.074
 0.331,-0.035,-0.978, 0.142, 0.848,-0.050
 0.334, 0.004,-0.982, 0.188, 0.789,-0.078
 0.308, 0.055,-0.937, 0.031, 0.796,-0.132
 0.307, 0.060,-0.856,-0.220, 0.907,-0.177
 0.344,-0.035,-0.773,-0.495, 1.180,-0.181
 0.345, 0.057,-0.921,-0.814, 1.295,-0.170
 0.329, 0.064,-0.947,-0.916, 1.237,-0.182
 0.321, 0.029,-1.002,-0.723, 1.072,-0.141
 0.323,-0.017,-0.967,-0.383, 0.882,-0.028
 0.400,-0.014,-0.882,-0.148, 0.839, 0.104
 0.355, 0.048,-0.995,-0.163, 0.773, 0.197
 0.350, 0.109,-0.985,-0.127, 0.561, 0.090
 0.386, 0.113,-0.967,-0.080, 0.582,-0.018
 0.387, 0.075,-0.907,-0.060, 0.702,-0.104
 0.416, 0.052,-0.941,-0.027, 0.805,-0.177
 0.417, 0.038,-0.931, 0.023, 0.749,-0.219
 0.429, 0.005,-0.916, 0.074, 0.694,-0.174
 0.442, 0.015,-0.907, 0.074, 0.701,-0.135
 0.455, 0.047,-0.884,-0.043, 0.813,-0.114
 0.469, 0.033,-0.898,-0.382, 1.058,-0.029
 0.361,-0.074,-0.993,-0.979, 1.423, 0.274
 0.397, 0.012,-0.967,-1.525, 1.628, 0.414
 0.418, 0.109,-0.905,-1.667, 1.695, 0.417
 0.489, 0.185,-0.852,-1.594, 1.652, 0.340
 0.531, 0.184,-0.836,-1.376, 1.532, 0.210
 0.604, 0.175,-0.765,-1.078, 1.502, 0.092
 0.670, 0.181,-0.760,-0.880, 1.593, 0.031
 0.650, 0.172,-0.780,-0.805, 1.683,-0.018
 0.592, 0.113,-0.799,-0.736, 1.742,-0.099
 0.595, 0.150,-0.796,-0.721, 1.748,-0.234
 0.589, 0.149,-0.798,-0.793, 1.749,-0.325
 0.553, 0.017,-0.776,-0.535, 1.710,-0.359
 0.579, 0.105,-0.795,-0.192, 1.609,-0.238
 0.570, 0.131,-0.824,-0.029, 1.439,-0.154
 0.606, 0.149,-0.797,-0.027, 1.331,-0.091
 0.624, 0.183,-0.766,-0.015, 1.178,-0.079
 0.652, 0.146,-0.730, 0.115, 1.013,-0.025
 0.697, 0.182,-0.710, 0.274, 0.809, 0.042
 0.706, 0.145,-0.769, 0.461, 0.421, 0.179
 0.651, 0.143,-0.721, 0.482, 0.272, 0.267
 0.668, 0.128,-0.712, 0.409, 0.272, 0.283
 0.690, 0.148,-0.692, 0.346, 0.425, 0.162
 0.704, 0.162,-0.709, 0.288, 0.588, 0.057
 0.727, 0.146,-0.706, 0.294, 0.732,-0.029
 0.750, 0.128,-0.684, 0.327, 0.851,-0.072
 0.739, 0.102,-0.687, 0.330, 0.952,-0.040
 0.754, 0.119,-0.655, 0.336, 1.107, 0.019
 0.740, 0.166,-0.657, 0.264, 1.180, 0.064
 0.722, 0.142,-0.647, 0.120, 1.194, 0.096
 0.682, 0.131,-0.686, 0.079, 1.196, 0.099
 0.769, 0.146,-0.646, 0.146, 1.276, 0.073
 0.762, 0.138,-0.598, 0.106, 1.455, 0.091
 0.751, 0.123,-0.599, 0.040, 1.478, 0.125
 0.751, 0.145,-0.604, 0.059, 1.423, 0.135
 0.792, 0.152,-0.614, 0.104, 1.401, 0.110
 0.820, 0.144,-0.595, 0.149, 1.398, 0.067
 0.841, 0.138,-0.567, 0.121, 1.410, 0.057
 0.828, 0.133,-0.574, 0.054, 1.422, 0.071
 0.854, 0.147,-0.531,-0.026, 1.578, 0.075
 0.816, 0.144,-0.596,-0.225, 1.665, 0.098
 0.809, 0.131,-0.612,-0.365, 1.650, 0.123
 0.790, 0.103,-0.596,-0.305, 1.560, 0.136
 0.797, 0.101,-0.583,-0.166, 1.379, 0.143
 0.828, 0.103,-0.545,-0.015, 1.297, 0.162
 0.863, 0.103,-0.504, 0.040, 1.260, 0.213
 0.854, 0.129,-0.495, 0.032, 1.215, 0.223
 0.861, 0.139,-0.485, 0.038, 1.151, 0.177
 0.874, 0.122,-0.479, 0.113, 1.107, 0.144
 0.895, 0.100,-0.459, 0.190, 1.088, 0.126
 0.889, 0.096,-0.481, 0.207, 1.044, 0.147
 0.910, 0.106,-0.450, 0.196, 1.028, 0.153
 0.919, 0.122,-0.416, 0.184, 1.059, 0.128
 0.899, 0.132,-0.439, 0.116, 1.040, 0.075
 0.911, 0.140,-0.431, 0.063, 1.010, 0.021
 0.917, 0.142,-0.402,-0.053, 1.011, 0.010
 0.943, 0.152,-0.373,-0.113, 1.084,-0.045
 0.945, 0.117,-0.350,-0.163, 1.179,-0.052
 0.933, 0.067,-0.330,-0.116, 1.285,-0.003
 0.920, 0.074,-0.335,-0.100, 1.370, 0.059
 0.938, 0.091,-0.344,-0.084, 1.427, 0.112
 0.933, 0.092,-0.338,-0.103, 1.450, 0.139
 0.959, 0.123,-0.321,-0.123, 1.468, 0.135
 0.947, 0.118,-0.321,-0.140, 1.486, 0.098
 0.935, 0.111,-0.313,-0.141, 1.479, 0.098
 0.940, 0.107,-0.308,-0.107, 1.479, 0.081
 0.936, 0.090,-0.314,-0.057, 1.469, 0.120
 0.961, 0.104,-0.297,-0.012, 1.417, 0.130
 0.953, 0.107,-0.280, 0.011, 1.352, 0.110
 0.966, 0.118,-0.250, 0.007, 1.338, 0.087
 0.979, 0.103,-0.198,-0.029, 1.391, 0.092
 0.996, 0.102,-0.175,-0.077, 1.483, 0.113
 0.998, 0.097,-0.151,-0.137, 1.531, 0.140
 0.985, 0.079,-0.151,-0.168, 1.598, 0.127
 0.997, 0.073,-0.153,-0.147, 1.520, 0.113
 0.993, 0.081,-0.147,-0.108, 1.437, 0.127
 1.009, 0.092,-0.130,-0.074, 1.378, 0.126
 1.033, 0.108,-0.106,-0.051, 1.421, 0.106
 1.035, 0.113,-0.093,-0.038, 1.485, 0.062
 1.036, 0.115,-0.078,-0.036, 1.567, 0.029
 1.042, 0.121,-0.060,-0.046, 1.708,-0.002
 1.046, 0.128,-0.057,-0.062, 1.874,-0.036
 1.022, 0.130,-0.039,-0.074, 2.005,-0.073
 0.994, 0.117,-0.029,-0.072, 2.021,-0.091
 0.971, 0.099,-0.012,-0.041, 1.914,-0.155
 0.921, 0.074, 0.006,-0.008, 1.758,-0.127
 0.900, 0.047, 0.004, 0.009, 1.571,-0.035
 0.909, 0.043, 0.022, 0.031, 1.421, 0.074
 0.928, 0.066, 0.038, 0.045, 1.300, 0.152
 0.952, 0.091, 0.072, 0.044, 1.217, 0.174
 0.981, 0.106, 0.094, 0.058, 1.198, 0.163
 0.994, 0.125, 0.119, 0.038, 1.215, 0.128
 0.995, 0.134, 0.127, 0.002, 1.232, 0.075
 0.999, 0.139, 0.135,-0.046, 1.266, 0.016
 1.000, 0.153, 0.148,-0.085, 1.313,-0.054
 0.980, 0.115, 0.156,-0.096, 1.336,-0.117
 0.956, 0.105, 0.159,-0.091, 1.298,-0.148
 0.923, 0.068, 0.168,-0.067, 1.249,-0.106
 0.971,-0.020, 0.266,-0.098, 1.319, 0.110
 1.019, 0.028, 0.268,-0.180, 1.432, 0.266
 1.005, 0.058, 0.248,-0.156, 1.431, 0.309
 1.009, 0.067, 0.256,-0.092, 1.415, 0.305
 1.004, 0.081, 0.280,-0.041, 1.407, 0.267
 0.988, 0.107, 0.288,-0.002, 1.367, 0.190
 0.973, 0.126, 0.290,-0.014, 1.296, 0.098
 0.961, 0.115, 0.298,-0.060, 1.238, 0.046
 0.944, 0.090, 0.316,-0.106, 1.197, 0.055
 0.942, 0.062, 0.328,-0.103, 1.177, 0.081
 0.953, 0.066, 0.339,-0.101, 1.165, 0.107
 0.951, 0.067, 0.350,-0.132, 1.178, 0.080
 0.958, 0.068, 0.362,-0.175, 1.203, 0.130
 0.946, 0.089, 0.383,-0.219, 1.218, 0.141
 0.936, 0.066, 0.400,-0.258, 1.239, 0.140
 0.932, 0.057, 0.411,-0.273, 1.262, 0.131
 0.936, 0.048, 0.427,-0.260, 1.298, 0.127
 0.935, 0.057, 0.436,-0.236, 1.338, 0.116
 0.950, 0.069, 0.443,-0.220, 1.379, 0.097
 0.950, 0.081, 0.420,-0.239, 1.419, 0.077
 0.958, 0.083, 0.455,-0.306, 1.484,-0.003
 0.937, 0.079, 0.473,-0.358, 1.534,-0.024
 0.922, 0.061, 0.497,-0.387, 1.654,-0.028
 0.895, 0.056, 0.489,-0.377, 1.734,-0.035
 0.875, 0.051, 0.468,-0.374, 1.828,-0.035
 0.857, 0.062, 0.485,-0.399, 1.886,-0.043
 0.831, 0.058, 0.532,-0.408, 1.928,-0.047
 0.821, 0.043, 0.565,-0.367, 1.946,-0.075
 0.804, 0.026, 0.582,-0.344, 1.978,-0.078
 0.798, 0.015, 0.598,-0.274, 2.012,-0.058
 0.772, 0.005, 0.613,-0.243, 2.011,-0.041
 0.745, 0.001, 0.612,-0.113, 1.955,-0.007
 0.720, 0.015, 0.644,-0.053, 1.903,-0.003
 0.707, 0.032, 0.653,-0.048, 1.773,-0.010
 0.705, 0.031, 0.674,-0.080, 1.703,-0.007
 0.712, 0.037, 0.697,-0.121, 1.657, 0.045
 0.698, 0.034, 0.712,-0.149, 1.626, 0.024
 0.688, 0.035, 0.717,-0.185, 1.603, 0.027
 0.680, 0.033, 0.743,-0.212, 1.562, 0.026
 0.660, 0.014, 0.761,-0.201, 1.488, 0.039
 0.655,-0.012, 0.765,-0.152, 1.419, 0.058
 0.659,-0.018, 0.780,-0.087, 1.385, 0.086
 0.652,-0.010, 0.796,-0.032, 1.394, 0.112
 0.632, 0.021, 0.792,-0.000, 1.338, 0.099
 0.612, 0.035, 0.783, 0.025, 1.294, 0.041
 0.588, 0.031, 0.788, 0.049, 1.219,-0.017
 0.583, 0.024, 0.778, 0.093, 1.160,-0.055
 0.585, 0.031, 0.814, 0.129, 1.132,-0.093
 0.597, 0.030, 0.813, 0.155, 1.151,-0.117
 0.583, 0.048, 0.825, 0.141, 1.148,-0.117
 0.565, 0.053, 0.826, 0.087, 1.118,-0.124
 0.552, 0.056, 0.826, 0.047, 1.062,-0.145
 0.527, 0.037, 0.848, 0.042, 0.989,-0.167
 0.505, 0.042, 0.814, 0.017, 0.924,-0.190
 0.484, 0.049, 0.810,-0.036, 0.828,-0.210
 0.489, 0.047, 0.809,-0.076, 0.771,-0.219
 0.481, 0.038, 0.812,-0.081, 0.733,-0.203
 0.478, 0.025, 0.822,-0.078, 0.709,-0.188
 0.491, 0.043, 0.839,-0.059, 0.696,-0.173
 0.499, 0.035, 0.858,-0.058, 0.710,-0.151
 0.494, 0.042, 0.869,-0.083, 0.723,-0.142
 0.500, 0.054, 0.868,-0.111, 0.737,-0.152
 0.483, 0.052, 0.862,-0.116, 0.756,-0.185
 0.479, 0.055, 0.874,-0.121, 0.802,-0.210
 0.482, 0.047, 0.893,-0.123, 0.856,-0.218
 0.476, 0.031, 0.898,-0.123, 0.941,-0.217
 0.483, 0.017, 0.921,-0.104, 1.052,-0.206
 0.491, 0.020, 0.924,-0.026, 1.186,-0.192
 0.472, 0.041, 0.903,-0.044, 1.275,-0.172
 0.432, 0.031, 0.912,-0.072, 1.289,-0.173
 0.419, 0.028, 0.918,-0.113, 1.261,-0.208
 0.403, 0.054, 0.935,-0.189, 1.229,-0.247
 0.362, 0.031, 0.937,-0.205, 1.140,-0.230
 0.333, 0.002, 0.934,-0.058, 0.999,-0.177
 0.344,-0.011, 0.931, 0.006, 0.903,-0.137
 0.345,-0.006, 0.942,-0.003, 0.917,-0.092
 0.324,-0.004, 0.937,-0.047, 0.851,-0.006
 0.304,-0.007, 0.941,-0.085, 0.819, 0.065
 0.314, 0.028, 0.991,-0.096, 0.848, 0.085
 0.366,-0.007, 0.991,-0.153, 0.921, 0.171
 0.340, 0.002, 1.012,-0.115, 0.999, 0.209
 0.331, 0.022, 1.007,-0.097, 1.068, 0.272
 0.300, 0.032, 0.991,-0.059, 1.116, 0.296
 0.291, 0.030, 0.982, 0.042, 1.104, 0.273
 0.270, 0.060, 0.979, 0.139, 1.062, 0.209
 0.266, 0.084, 0.988, 0.192, 1.041, 0.145
 0.258, 0.068, 1.007, 0.259, 1.063, 0.042
 0.287, 0.200, 0.973, 0.470, 1.131, 0.013
 0.191, 0.009, 0.992, 0.284, 1.125, 0.101
 0.288, 0.074, 1.001, 0.577, 1.159, 0.114
 0.192, 0.053, 0.966, 0.578, 1.131, 0.063
 0.181, 0.060, 0.979, 0.673, 1.055, 0.058
 0.154, 0.072, 0.947, 0.708, 1.003, 0.026
 0.123, 0.072, 0.944, 0.719, 0.941, 0.018
 0.132, 0.083, 0.934, 0.743, 0.892, 0.009
 0.147, 0.088, 0.935, 0.725, 0.851,-0.012
 0.129, 0.062, 0.941, 0.649, 0.800, 0.015
 0.109, 0.082, 0.918, 0.540, 0.778, 0.043
 0.082, 0.078, 0.916, 0.427, 0.664, 0.067
 0.082, 0.088, 0.882, 0.250, 0.566, 0.095
 0.063, 0.091, 0.877, 0.128, 0.452, 0.119
 0.049, 0.067, 0.880,-0.031, 0.346, 0.146
 0.039, 0.051, 0.876,-0.135, 0.227, 0.151
 0.019, 0.061, 0.882,-0.257, 0.104, 0.226
 0.045, 0.079, 0.896,-0.342,-0.010, 0.218
 0.066, 0.086, 0.907,-0.408,-0.075, 0.264
 0.077, 0.092, 0.925,-0.458,-0.191, 0.269
 0.100, 0.103, 0.933,-0.491,-0.247, 0.250
 0.091, 0.107, 0.929,-0.494,-0.309, 0.222
 0.076, 0.108, 0.926,-0.483,-0.404, 0.188
 0.086, 0.099, 0.938,-0.552,-0.497, 0.162
 0.102, 0.075, 0.946,-0.573,-0.551, 0.160
 0.110, 0.061, 0.945,-0.607,-0.629, 0.189
 0.089, 0.056, 0.923,-0.667,-0.746, 0.210
 0.084, 0.037, 0.931,-0.727,-0.886, 0.230
 0.108, 0.021, 0.930,-0.723,-0.999, 0.236
 0.148, 0.002, 0.982,-0.717,-1.054, 0.235
 0.210, 0.002, 1.045,-0.621,-1.004, 0.237
 0.233,-0.014, 1.079,-0.543,-0.916, 0.242
 0.249,-0.009, 1.057,-0.476,-0.852, 0.258
 0.239,-0.016, 0.997,-0.440,-0.836, 0.296
 0.188,-0.008, 0.950,-0.420,-0.903, 0.330
 0.186,-0.015, 0.932,-0.372,-1.021, 0.341
 0.187,-0.023, 0.925,-0.283,-1.171, 0.344
 0.197,-0.033, 0.967,-0.145,-1.233, 0.325
 0.230,-0.042, 1.017, 0.063,-1.344, 0.401
 0.222,-0.084, 1.045, 0.479,-1.478, 0.674
 0.322,-0.043, 1.002, 0.423,-1.515, 0.541
 0.349,-0.003, 0.980, 0.166,-1.502, 0.434
 0.301,-0.014, 0.972, 0.037,-1.622, 0.422
 0.314,-0.019, 0.963, 0.034,-1.737, 0.456
 0.348,-0.026, 0.947, 0.085,-1.787, 0.466
 0.351, 0.000, 0.933, 0.064,-1.829, 0.444
 0.367, 0.032, 0.917, 0.028,-1.875, 0.421
 0.388, 0.040, 0.919,-0.013,-1.916, 0.356
 0.407, 0.009, 0.907, 0.123,-2.004, 0.266
 0.441, 0.019, 0.925, 0.277,-2.072, 0.158
 0.480, 0.020, 0.965, 0.395,-2.088, 0.057
 0.505, 0.013, 0.937, 0.419,-2.086,-0.032
 0.511, 0.005, 0.895, 0.359,-2.083,-0.076
 0.515, 0.003, 0.872, 0.303,-2.155,-0.088
 0.526, 0.005, 0.855, 0.238,-2.168,-0.137
 0.559, 0.022, 0.831, 0.180,-2.131,-0.224
 0.598, 0.033, 0.847, 0.100,-2.065,-0.324
 0.608, 0.051, 0.833, 0.057,-2.061,-0.303
 0.632, 0.037, 0.817, 0.079,-2.112,-0.291
 0.653, 0.023, 0.823, 0.090,-2.105,-0.340
 0.660, 0.040, 0.794, 0.010,-2.061,-0.410
 0.667, 0.057, 0.763,-0.112,-2.069,-0.479
 0.676, 0.048, 0.767,-0.175,-2.184,-0.550
 0.686, 0.028, 0.764,-0.129,-2.288,-0.610
 0.697, 0.023, 0.717,-0.045,-2.450,-0.654
 0.697, 0.034, 0.670,-0.001,-2.510,-0.674
 0.733, 0.031, 0.640,-0.039,-2.511,-0.683
 0.747, 0.044, 0.630, 0.019,-2.501,-0.663
 0.770, 0.056, 0.642, 0.039,-2.482,-0.628
 0.788, 0.071, 0.635, 0.038,-2.501,-0.611
 0.795, 0.092, 0.608,-0.016,-2.552,-0.604
 0.820, 0.095, 0.581,-0.099,-2.586,-0.579
 0.855, 0.085, 0.546,-0.144,-2.541,-0.541
 0.884, 0.067, 0.521,-0.255,-2.450,-0.479
 0.880, 0.057, 0.467,-0.321,-2.371,-0.375
 0.855, 0.050, 0.440,-0.383,-2.365,-0.240
 0.803, 0.017, 0.396,-0.406,-2.507,-0.156
 0.841, 0.058, 0.469,-0.386,-2.564,-0.107
 0.857, 0.092, 0.435,-0.443,-2.588,-0.172
 0.883, 0.109, 0.414,-0.542,-2.586,-0.237
 0.921, 0.092, 0.391,-0.573,-2.537,-0.328
 0.949, 0.095, 0.369,-0.536,-2.477,-0.450
 0.962, 0.088, 0.317,-0.507,-2.451,-0.549
 0.948, 0.069, 0.296,-0.454,-2.404,-0.578
 0.966, 0.066, 0.263,-0.383,-2.328,-0.525
 0.964, 0.048, 0.240,-0.317,-2.212,-0.441
 0.939, 0.053, 0.216,-0.259,-2.108,-0.364
 0.946, 0.060, 0.235,-0.223,-1.984,-0.305
 0.937, 0.073, 0.211,-0.234,-1.909,-0.293
 0.947, 0.082, 0.199,-0.292,-1.904,-0.245
 0.966, 0.094, 0.210,-0.336,-1.917,-0.254
 0.952, 0.066, 0.161,-0.385,-1.986,-0.236
 0.944, 0.014, 0.167,-0.378,-2.005,-0.129
 0.950, 0.031, 0.138,-0.361,-1.952, 0.000
 0.956, 0.074, 0.077,-0.396,-1.851, 0.088
 0.990, 0.102, 0.050,-0.468,-1.729, 0.157
 1.006, 0.130, 0.025,-0.499,-1.617, 0.128
 0.990, 0.101, 0.031,-0.424,-1.514, 0.077
 0.972, 0.090, 0.019,-0.339,-1.447, 0.064
 0.969, 0.087, 0.006,-0.312,-1.349, 0.108
 0.983, 0.105,-0.002,-0.250,-1.247, 0.156
 0.996, 0.117, 0.026,-0.257,-1.132, 0.184
 0.993, 0.093, 0.003,-0.248,-1.069, 0.157
 0.991, 0.123,-0.026,-0.250,-1.062, 0.085
 0.952, 0.121,-0.101,-0.345,-1.109, 0.063
 0.944, 0.066,-0.109,-0.511,-1.174, 0.113
 0.941, 0.060,-0.115,-0.659,-1.253, 0.149
 0.939, 0.079,-0.159,-0.745,-1.420, 0.219
 0.965, 0.057,-0.134,-0.641,-1.589, 0.206
 0.977, 0.055,-0.134,-0.388,-1.733, 0.158
 0.996, 0.078,-0.096,-0.137,-1.800, 0.088
 0.970, 0.086,-0.132, 0.180,-1.850, 0.028
 0.982, 0.123,-0.155, 0.291,-1.877,-0.027
 0.984, 0.139,-0.179, 0.272,-1.813,-0.087
 0.995, 0.129,-0.210, 0.166,-1.784,-0.157
 0.992, 0.111,-0.210, 0.061,-1.747,-0.136
 0.977, 0.068,-0.174,-0.069,-1.666,-0.119
 0.950, 0.054,-0.182,-0.181,-1.586,-0.065
 0.943, 0.014,-0.181,-0.242,-1.476, 0.022
 0.953, 0.046,-0.224,-0.236,-1.434, 0.055
 0.957, 0.064,-0.292,-0.181,-1.517, 0.047
 0.985, 0.091,-0.296,-0.091,-1.612, 0.042
 0.986, 0.105,-0.322,-0.054,-1.673,-0.044
 1.006, 0.103,-0.330,-0.034,-1.694,-0.068
 0.944, 0.103,-0.394,-0.048,-1.777,-0.084
 0.907, 0.098,-0.433,-0.065,-1.848,-0.064
 0.925, 0.092,-0.415,-0.063,-1.906,-0.039
 0.899, 0.085,-0.437,-0.062,-1.906, 0.014
 0.860, 0.082,-0.503,-0.081,-2.016, 0.123
 0.869, 0.069,-0.492,-0.105,-2.234, 0.202
 0.869, 0.057,-0.500,-0.097,-2.345, 0.252
 0.881, 0.072,-0.518,-0.110,-2.402, 0.350
 0.873, 0.071,-0.506,-0.130,-2.390, 0.415
 0.879, 0.063,-0.498,-0.140,-2.339, 0.503
 0.864, 0.064,-0.526,-0.163,-2.309, 0.570
 0.852, 0.046,-0.557,-0.170,-2.325, 0.658
 0.834, 0.041,-0.595,-0.193,-2.350, 0.742
 0.810, 0.076,-0.614,-0.229,-2.336, 0.775
 0.791, 0.106,-0.623,-0.272,-2.320, 0.747
 0.785, 0.102,-0.609,-0.279,-2.185, 0.687
 0.785, 0.092,-0.584,-0.255,-1.943, 0.595
 0.791, 0.102,-0.585,-0.230,-1.629, 0.485
 0.783, 0.083,-0.603,-0.201,-1.269, 0.341
 0.742, 0.030,-0.634,-0.137,-1.031, 0.343
 0.717, 0.067,-0.684,-0.158,-0.957, 0.328
 0.735, 0.083,-0.701,-0.181,-0.884, 0.263
 0.732, 0.063,-0.729,-0.156,-0.901, 0.239
 0.689, 0.025,-0.755,-0.080,-1.003, 0.279
 0.675, 0.027,-0.809,-0.037,-1.128, 0.318
 0.665,-0.006,-0.867, 0.078,-1.405, 0.389
 0.682, 0.077,-0.752,-0.048,-1.375, 0.348
 0.705, 0.052,-0.739,-0.107,-1.251, 0.315
 0.686, 0.043,-0.753,-0.064,-1.147, 0.293
 0.706, 0.092,-0.754,-0.126,-1.058, 0.194
 0.699, 0.099,-0.759,-0.234,-0.899, 0.088
 0.696, 0.067,-0.747,-0.300,-0.784,-0.006
 0.681, 0.033,-0.720,-0.285,-0.582,-0.076
 0.666, 0.052,-0.722,-0.241,-0.414,-0.139
 0.503, 0.085,-0.797,-0.204,-0.396,-0.172
 0.656, 0.076,-0.737,-0.035,-0.177,-0.206
 0.785, 0.161,-0.728, 0.148, 0.076,-0.361
 0.774, 0.163,-0.804, 0.193, 0.144,-0.600
 0.672, 0.106,-0.870, 0.224, 0.010,-0.768
 0.613, 0.057,-0.916, 0.169,-0.154,-0.762
 0.606, 0.023,-0.906, 0.066,-0.258,-0.647
 0.611, 0.059,-0.886,-0.093,-0.265,-0.485
 0.592, 0.046,-0.871,-0.252,-0.258,-0.332
 0.577, 0.033,-0.873,-0.352,-0.208,-0.219
 0.568,-0.007,-0.860,-0.380,-0.227,-0.017
 0.555,-0.009,-0.843,-0.374,-0.246, 0.269
 0.491,-0.077,-0.835,-0.335,-0.301, 0.522
 0.616, 0.238,-0.745,-0.535,-0.083, 0.345
 0.827, 0.284,-0.660,-0.541, 0.268,-0.067
 0.731, 0.120,-0.724,-0.339, 0.355,-0.230
 0.645, 0.090,-0.809,-0.316, 0.273,-0.283
 0.610, 0.029,-0.756,-0.281, 0.236,-0.218
 0.592, 0.014,-0.761,-0.234, 0.262,-0.096
 0.584, 0.061,-0.765,-0.197, 0.287,-0.017
 0.559, 0.108,-0.754,-0.179, 0.297,-0.017
 0.556, 0.119,-0.772,-0.163, 0.294,-0.023
 0.475, 0.026,-0.812,-0.124, 0.198, 0.142
 0.296,-0.266,-0.984,-0.037,-0.227, 0.755
 0.303,-0.484,-0.982, 0.389,-0.668, 1.687
 0.410,-0.217,-1.027, 0.382,-1.021, 2.403
 0.516,-0.037,-1.029, 0.125,-1.329, 2.797
 0.640, 0.176,-1.027,-0.287,-1.592, 2.819
 0.643, 0.105,-0.931,-0.421,-1.797, 2.716
 0.607,-0.002,-0.846,-0.275,-1.826, 2.480
 0.610, 0.209,-0.802,-0.207,-1.753, 1.957
 0.799, 0.488,-0.475,-0.229,-1.329, 0.971
 0.949, 0.483,-0.360,-0.436,-0.486, 0.031
 0.854, 0.224,-0.528,-0.418, 0.149,-0.442
 0.688,-0.048,-0.783,-0.348, 0.356,-0.504
 0.521,-0.132,-0.946,-0.331, 0.129,-0.330
 0.498,-0.186,-0.991,-0.213,-0.264,-0.117
 0.519,-0.090,-1.031,-0.208,-0.590, 0.013
 0.540, 0.016,-0.994,-0.273,-0.910, 0.050
 0.524, 0.053,-0.975,-0.291,-1.097, 0.013
 0.494,-0.038,-0.910,-0.224,-1.232, 0.099
 0.531,-0.037,-0.861,-0.150,-1.147, 0.169
 0.507, 0.039,-0.892,-0.291,-1.121, 0.149
 0.487, 0.001,-0.864,-0.320,-1.103, 0.146
 0.466, 0.012,-0.850,-0.328,-1.077, 0.171
 0.432, 0.004,-0.871,-0.318,-1.076, 0.187
 0.458,-0.022,-0.847,-0.231,-1.017, 0.263
 0.433,-0.003,-0.880,-0.187,-1.013, 0.335
 0.429,-0.001,-0.904,-0.157,-1.075, 0.336
 0.418, 0.017,-0.922,-0.152,-1.172, 0.339
 0.422,-0.041,-0.924, 0.004,-1.276, 0.405
 0.488, 0.018,-0.902, 0.091,-1.192, 0.376
 0.459, 0.076,-0.909, 0.017,-0.998, 0.311
 0.452, 0.015,-0.888, 0.042,-0.847, 0.260
 0.436, 0.062,-0.895, 0.071,-0.746, 0.208
 0.419, 0.067,-0.937, 0.050,-0.719, 0.162
 0.399, 0.038,-0.963, 0.022,-0.779, 0.208
 0.365, 0.028,-0.992,-0.001,-0.915, 0.299
 0.249,-0.004,-1.095,-0.124,-1.177, 0.414
 0.132, 0.045,-1.134,-0.416,-1.858, 0.416
 0.336,-0.021,-0.983,-0.369,-2.262, 0.058
 0.389, 0.151,-0.890,-0.043,-2.322,-0.333
 0.360, 0.139,-0.949, 0.109,-2.219,-0.712
 0.347, 0.130,-0.928, 0.067,-1.941,-0.797
 0.256, 0.098,-0.958,-0.139,-1.775,-0.827
 0.294, 0.029,-0.936,-0.246,-1.526,-0.800
 0.294, 0.018,-0.942,-0.409,-1.156,-0.730
 0.301, 0.018,-0.965,-0.541,-0.741,-0.629
 0.259, 0.022,-1.002,-0.593,-0.345,-0.493
 0.220, 0.029,-1.025,-0.568,-0.102,-0.377
 0.187, 0.043,-1.051,-0.532, 0.108,-0.340
 0.183, 0.067,-1.069,-0.556, 0.239,-0.412
 0.199, 0.068,-1.077,-0.512, 0.270,-0.541
 0.215, 0.055,-1.094,-0.382, 0.109,-0.612
 0.193, 0.024,-1.101,-0.225,-0.114,-0.595
 0.138, 0.025,-1.081,-0.008,-0.440,-0.601
 0.139, 0.065,-1.027, 0.138,-0.699,-0.565
 0.150, 0.147,-0.990, 0.153,-0.860,-0.617
 0.164, 0.150,-0.968, 0.110,-0.971,-0.639
 0.171, 0.113,-0.975, 0.172,-0.983,-0.613
 0.196, 0.092,-0.927, 0.157,-0.879,-0.521
 0.163, 0.078,-1.015, 0.152,-0.739,-0.422
 0.138, 0.043,-1.057, 0.126,-0.881,-0.295
 0.064,-0.050,-1.056, 0.130,-1.172,-0.004
 0.068,-0.063,-0.949, 0.365,-1.376, 0.240
 0.138,-0.017,-0.861, 0.561,-1.258, 0.331
 0.259, 0.144,-0.937, 0.453,-0.937, 0.123
 0.200, 0.150,-0.931, 0.447,-0.627,-0.158
 0.107, 0.154,-1.090, 0.385,-0.532,-0.418
 0.054, 0.078,-1.050, 0.385,-0.585,-0.622
 0.074, 0.053,-0.964, 0.525,-0.525,-0.787
 0.012, 0.104,-0.998, 0.445,-0.559,-0.924
-0.059, 0.091,-0.941, 0.184,-0.831,-1.001
 0.063, 0.033,-0.904, 0.228,-0.758,-1.118
-0.050, 0.035,-0.950, 0.178,-0.858,-1.167
 0.019, 0.008,-0.923, 0.113,-0.703,-1.170
 0.032,-0.008,-0.920, 0.051,-0.346,-1.090
 0.003,-0.040,-0.955, 0.014,-0.099,-0.880
-0.023,-0.027,-0.973, 0.074,-0.048,-0.681
 0.012, 0.062,-1.012, 0.097,-0.015,-0.653
 0.012, 0.107,-1.038, 0.067,-0.023,-0.783
-0.035, 0.100,-1.054, 0.085,-0.095,-0.883
-0.044, 0.089,-1.039, 0.147,-0.195,-0.910
-0.027, 0.061,-1.050, 0.186,-0.282,-0.881
-0.010, 0.085,-1.037, 0.147,-0.428,-0.871
-0.008, 0.045,-1.048, 0.121,-0.481,-0.744
-0.017, 0.015,-1.047, 0.119,-0.560,-0.609
-0.011, 0.004,-1.044, 0.117,-0.569,-0.484
-0.008, 0.034,-1.066, 0.075,-0.540,-0.426
-0.022, 0.051,-1.064,-0.009,-0.523,-0.450
-0.042, 0.059,-1.063,-0.079,-0.542,-0.525
-0.023, 0.101,-0.984,-0.182,-0.470,-0.621
-0.006, 0.125,-0.959,-0.448,-0.331,-0.684
-0.016, 0.124,-1.012,-0.610,-0.275,-0.680
-0.058, 0.125,-1.106,-0.675,-0.312,-0.642
-0.096, 0.094,-1.153,-0.685,-0.448,-0.584
-0.068,-0.015,-1.113,-0.723,-0.589,-0.452
-0.090,-0.008,-1.080,-0.703,-0.634,-0.361
-0.085, 0.091,-1.080,-0.779,-0.680,-0.339
-0.047, 0.141,-1.067,-0.877,-0.725,-0.419
-0.059, 0.117,-1.094,-0.883,-0.886,-0.502
-0.087, 0.099,-1.093,-0.837,-1.113,-0.691
-0.141, 0.082,-1.068,-0.725,-1.315,-0.802
-0.170, 0.117,-1.035,-0.622,-1.414,-0.818
-0.190, 0.140,-1.012,-0.544,-1.403,-0.772
-0.193, 0.114,-1.012,-0.476,-1.359,-0.623
-0.209, 0.125,-1.009,-0.497,-1.363,-0.526
-0.194, 0.111,-1.012,-0.582,-1.364,-0.478
-0.185, 0.095,-1.000,-0.603,-1.358,-0.425
-0.182, 0.087,-1.036,-0.580,-1.424,-0.322
-0.263,-0.021,-1.159,-0.471,-1.713,-0.063
-0.342,-0.015,-1.197,-0.381,-2.138, 0.169
-0.335, 0.054,-1.119,-0.375,-2.396, 0.256
-0.301, 0.077,-0.915,-0.083,-2.420, 0.211
-0.261, 0.135,-0.828, 0.218,-2.296, 0.109
-0.243, 0.174,-0.865, 0.263,-2.160, 0.031
-0.266, 0.189,-0.932, 0.102,-2.091,-0.026
-0.282, 0.169,-0.871, 0.041,-2.051,-0.066
-0.332, 0.150,-0.844, 0.183,-2.015,-0.100
-0.419, 0.176,-0.946, 0.244,-2.109,-0.129
-0.494, 0.247,-1.020, 0.130,-2.291,-0.187
-0.474, 0.215,-0.945, 0.075,-2.488,-0.286
-0.443, 0.185,-0.899, 0.101,-2.515,-0.332
-0.437, 0.158,-0.856, 0.065,-2.486,-0.380
-0.456, 0.145,-0.826,-0.024,-2.375,-0.368
-0.490, 0.130,-0.790,-0.107,-2.308,-0.395
-0.534, 0.132,-0.790,-0.185,-2.336,-0.475
-0.569, 0.129,-0.782,-0.185,-2.417,-0.564
-0.583, 0.113,-0.785,-0.136,-2.545,-0.612
-0.578, 0.125,-0.777,-0.162,-2.658,-0.606
-0.627, 0.132,-0.772,-0.257,-2.733,-0.586
-0.662, 0.125,-0.744,-0.329,-2.854,-0.574
-0.650, 0.108,-0.711,-0.410,-2.901,-0.571
-0.656, 0.113,-0.689,-0.503,-2.863,-0.558
-0.684, 0.106,-0.637,-0.598,-2.796,-0.523
-0.697, 0.099,-0.622,-0.668,-2.635,-0.492
-0.709, 0.102,-0.616,-0.724,-2.562,-0.458
-0.734, 0.103,-0.593,-0.772,-2.502,-0.438
-0.750, 0.113,-0.555,-0.804,-2.436,-0.409
-0.769, 0.126,-0.539,-0.813,-2.380,-0.390
-0.795, 0.122,-0.516,-0.781,-2.350,-0.386
-0.791, 0.135,-0.482,-0.734,-2.265,-0.364
-0.825, 0.123,-0.479,-0.685,-2.205,-0.334
-0.821, 0.125,-0.442,-0.611,-2.141,-0.335
-0.843, 0.106,-0.424,-0.541,-2.031,-0.312
-0.840, 0.102,-0.396,-0.505,-1.886,-0.264
-0.850, 0.102,-0.385,-0.522,-1.742,-0.230
-0.857, 0.092,-0.387,-0.487,-1.623,-0.202
-0.872, 0.084,-0.377,-0.404,-1.530,-0.160
-0.867, 0.089,-0.366,-0.372,-1.448,-0.158
-0.891, 0.100,-0.355,-0.328,-1.397,-0.098
-0.905, 0.104,-0.358,-0.310,-1.407,-0.093
-0.933, 0.138,-0.369,-0.269,-1.485,-0.074
-0.949, 0.152,-0.376,-0.263,-1.616,-0.076
-0.956, 0.162,-0.343,-0.271,-1.687,-0.093
-0.950, 0.151,-0.270,-0.302,-1.650,-0.072
-0.954, 0.113,-0.230,-0.285,-1.554,-0.008
-0.973, 0.091,-0.226,-0.218,-1.452, 0.084
-0.983, 0.100,-0.236,-0.184,-1.399, 0.185
-0.990, 0.103,-0.245,-0.178,-1.319, 0.298
-0.991, 0.116,-0.247,-0.182,-1.323, 0.314
-0.986, 0.145,-0.240,-0.189,-1.394, 0.264
-0.991, 0.154,-0.264,-0.169,-1.524, 0.199
-1.027, 0.130,-0.248,-0.111,-1.698, 0.187
-1.009, 0.109,-0.230,-0.059,-1.824, 0.254
-1.003, 0.098,-0.190,-0.001,-1.922, 0.289
-1.004, 0.139,-0.168, 0.022,-2.010, 0.360
-1.011, 0.171,-0.158, 0.030,-2.103, 0.328
-0.999, 0.200,-0.155,-0.012,-2.186, 0.231
-1.006, 0.193,-0.145, 0.002,-2.341, 0.121
-0.983, 0.185,-0.111, 0.039,-2.466, 0.040
-0.947, 0.195, 0.019,-0.009,-2.452, 0.003
-0.889, 0.196, 0.170,-0.258,-2.120, 0.046
-0.876, 0.157, 0.220,-0.403,-1.760, 0.094
-0.912, 0.158, 0.114,-0.303,-1.621, 0.081
-0.969, 0.159, 0.034,-0.246,-1.654, 0.067
-1.003, 0.166, 0.025,-0.303,-1.751, 0.089
-1.029, 0.179, 0.014,-0.388,-1.859, 0.102
-1.006, 0.218, 0.074,-0.496,-1.947, 0.088
-0.959, 0.166, 0.160,-0.522,-1.897, 0.104
-0.938, 0.137, 0.197,-0.472,-1.800, 0.107
-0.923, 0.148, 0.202,-0.442,-1.713, 0.102
-0.924, 0.155, 0.197,-0.415,-1.693, 0.082
-0.925, 0.159, 0.212,-0.470,-1.726, 0.054
-0.935, 0.157, 0.220,-0.511,-1.770, 0.007
-0.935, 0.160, 0.250,-0.484,-1.783, 0.001
-0.931, 0.154, 0.272,-0.478,-1.760,-0.009
-0.917, 0.145, 0.299,-0.410,-1.697,-0.033
-0.924, 0.130, 0.306,-0.360,-1.672,-0.029
-0.923, 0.170, 0.280,-0.382,-1.704,-0.033
-0.913, 0.164, 0.309,-0.395,-1.740,-0.052
-0.892, 0.137, 0.355,-0.403,-1.718,-0.048
-0.874, 0.127, 0.388,-0.372,-1.659,-0.053
-0.876, 0.130, 0.417,-0.351,-1.601,-0.046
-0.886, 0.152, 0.392,-0.338,-1.594,-0.050
-0.906, 0.156, 0.394,-0.403,-1.661,-0.063
-0.893, 0.149, 0.411,-0.467,-1.719,-0.056
-0.873, 0.130, 0.459,-0.470,-1.715,-0.102
-0.863, 0.133, 0.493,-0.430,-1.649,-0.084
-0.855, 0.120, 0.523,-0.348,-1.542,-0.050
-0.843, 0.112, 0.534,-0.249,-1.437,-0.007
-0.849, 0.116, 0.536,-0.143,-1.365, 0.022
-0.846, 0.129, 0.538,-0.065,-1.305, 0.037
-0.836, 0.136, 0.525,-0.064,-1.295,-0.014
-0.807, 0.113, 0.520,-0.038,-1.307,-0.078
-0.796, 0.142, 0.545,-0.018,-1.331,-0.150
-0.799, 0.115, 0.548,-0.014,-1.388,-0.155
-0.802, 0.123, 0.567,-0.028,-1.450,-0.166
-0.791, 0.130, 0.582,-0.052,-1.499,-0.160
-0.777, 0.120, 0.609,-0.017,-1.507,-0.214
-0.761, 0.115, 0.647, 0.061,-1.501,-0.213
-0.753, 0.101, 0.672, 0.177,-1.354,-0.178
-0.747, 0.116, 0.658, 0.298,-1.244,-0.109
-0.748, 0.128, 0.630, 0.372,-1.196,-0.067
-0.745, 0.130, 0.617, 0.471,-1.238,-0.025
-0.716, 0.154, 0.616, 0.337,-1.379,-0.005
-0.717, 0.143, 0.622, 0.230,-1.535,-0.086
-0.680, 0.154, 0.644, 0.058,-1.607,-0.188
-0.654, 0.140, 0.679, 0.024,-1.724,-0.246
-0.642, 0.146, 0.717, 0.015,-1.748,-0.237
-0.629, 0.148, 0.751,-0.012,-1.646,-0.208
-0.623, 0.129, 0.770,-0.042,-1.486,-0.148
-0.589, 0.118, 0.778,-0.062,-1.332,-0.109
-0.566, 0.122, 0.773,-0.052,-1.109,-0.114
-0.574, 0.086, 0.796,-0.004,-0.944,-0.100
-0.652, 0.132, 0.870, 0.232,-0.898,-0.115
-0.620, 0.117, 0.879, 0.335,-0.820,-0.139
-0.679, 0.168, 0.760, 0.356,-0.962,-0.178
-0.287, 0.575, 0.750, 0.221,-1.021,-0.211
-0.652, 0.119, 0.549, 0.075,-1.113,-0.267
-0.702, 0.194, 0.614, 0.049,-1.774,-0.191
-0.629, 0.146, 0.768,-0.158,-2.038,-0.053
-0.588, 0.130, 0.827,-0.243,-2.070, 0.017
-0.533, 0.106, 0.855,-0.274,-1.898,-0.051
-0.522, 0.101, 0.899, 0.053,-1.767,-0.185
-0.438, 0.131, 0.925,-0.188,-1.296,-0.166
-0.478, 0.088, 0.871,-0.303,-1.055,-0.024
-0.489, 0.105, 0.840,-0.286,-1.055, 0.048
-0.506, 0.109, 0.848,-0.279,-1.058, 0.196
-0.498, 0.114, 0.825,-0.407,-1.080, 0.331
-0.480, 0.097, 0.849,-0.447,-1.069, 0.435
-0.453, 0.102, 0.847,-0.421,-1.058, 0.525
-0.444, 0.092, 0.848,-0.440,-1.064, 0.626
-0.439, 0.103, 0.873,-0.430,-1.020, 0.661
-0.417, 0.095, 0.894,-0.332,-0.948, 0.569
-0.414, 0.088, 0.880,-0.279,-0.895, 0.522
-0.399, 0.095, 0.883,-0.284,-0.865, 0.392
-0.365, 0.111, 0.883,-0.345,-0.759, 0.233
-0.314, 0.076, 0.877,-0.525,-0.564, 0.042
-0.335, 0.043, 0.871,-0.431,-0.508,-0.097
-0.338, 0.033, 0.900,-0.219,-0.599,-0.204
-0.512, 0.090, 0.952,-0.179,-0.974,-0.498
-0.295, 0.031, 0.976,-0.351,-0.967,-0.255
-0.429, 0.025, 0.976,-0.142,-1.184,-0.077
-0.384, 0.093, 0.974,-0.148,-1.280,-0.117
-0.351, 0.066, 0.939,-0.093,-1.465,-0.162
-0.340, 0.064, 0.935, 0.060,-1.695,-0.266
-0.285, 0.036, 0.910, 0.263,-1.970,-0.477
-0.291, 0.016, 0.947, 0.465,-2.125,-0.556
-0.226, 0.025, 1.002, 0.627,-2.062,-0.536
-0.183, 0.045, 0.978, 0.704,-1.916,-0.483
-0.163, 0.055, 0.967, 0.712,-1.774,-0.426
-0.160, 0.062, 0.969, 0.769,-1.512,-0.321
-0.179, 0.109, 0.996, 0.746,-1.295,-0.253
-0.197, 0.143, 0.976, 0.654,-1.039,-0.130
-0.195, 0.152, 0.987, 0.521,-0.838,-0.022
-0.193, 0.161, 0.978, 0.368,-0.709, 0.094
-0.201, 0.151, 0.950, 0.201,-0.709, 0.117
-0.171, 0.148, 0.950, 0.070,-0.735, 0.100
-0.144, 0.133, 0.987,-0.020,-0.734, 0.061
-0.126, 0.121, 0.992,-0.029,-0.734, 0.005
-0.123, 0.128, 1.000,-0.011,-0.744,-0.063
-0.112, 0.118, 1.011, 0.000,-0.725,-0.068
-0.108, 0.115, 1.012,-0.052,-0.689,-0.066
-0.109, 0.123, 0.996,-0.091,-0.690,-0.066
-0.102, 0.097, 1.007,-0.073,-0.677,-0.102
-0.086, 0.107, 1.029,-0.004,-0.607,-0.142
-0.077, 0.122, 1.013, 0.043,-0.520,-0.148
-0.073, 0.133, 1.002,-0.014,-0.427,-0.135
-0.081, 0.122, 0.993,-0.056,-0.367,-0.137
-0.093, 0.114, 0.976,-0.082,-0.367,-0.135
-0.099, 0.119, 0.981,-0.109,-0.396,-0.142
-0.092, 0.116, 0.977,-0.126,-0.437,-0.140
-0.100, 0.120, 0.965,-0.142,-0.453,-0.117
-0.078, 0.109, 0.984,-0.197,-0.509,-0.083
-0.054, 0.106, 1.021,-0.129,-0.451,-0.070
-0.026, 0.084, 1.030,-0.027,-0.369,-0.053
-0.030, 0.098, 1.017, 0.072,-0.230,-0.024
-0.057, 0.119, 1.014, 0.087,-0.257,-0.077
-0.045, 0.093, 1.014, 0.058,-0.301,-0.123
-0.025, 0.081, 1.006, 0.019,-0.339,-0.064
-0.017, 0.067, 0.980,-0.002,-0.406, 0.040
-0.031, 0.067, 0.917,-0.029,-0.504, 0.179
-0.036, 0.077, 0.957,-0.074,-0.515, 0.294
-0.094, 0.111, 1.008,-0.125,-0.481, 0.327
-0.066, 0.142, 1.037,-0.104,-0.421, 0.252
-0.052, 0.146, 1.040,-0.070,-0.392, 0.181
-0.024, 0.130, 1.000,-0.076,-0.395, 0.074
-0.025, 0.125, 0.995,-0.075,-0.422, 0.054
-0.020, 0.122, 0.977,-0.168,-0.478, 0.064
-0.016, 0.131, 0.975,-0.237,-0.558, 0.093
-0.024, 0.160, 1.008,-0.236,-0.546, 0.158
 0.051, 0.097, 0.944,-0.306,-0.599, 0.172
 0.030, 0.075, 1.048,-0.248,-0.550, 0.171
 0.028, 0.084, 0.969,-0.087,-0.586, 0.117
 0.018, 0.089, 1.035, 0.044,-0.565, 0.103
-0.013, 0.151, 0.949, 0.150,-0.702, 0.031
 0.028, 0.074, 0.985, 0.050,-0.735, 0.031
 0.023, 0.107, 0.974, 0.129,-0.833,-0.020
 0.034, 0.114, 0.946, 0.059,-0.896,-0.059
 0.048, 0.086, 0.988, 0.066,-0.941,-0.076
 0.084, 0.097, 1.006, 0.091,-0.960,-0.077
 0.108, 0.100, 1.018, 0.084,-0.942,-0.095
 0.105, 0.079, 1.002, 0.104,-0.948,-0.075
 0.114, 0.043, 0.986, 0.226,-0.976,-0.025
 0.130, 0.066, 0.989, 0.350,-0.951, 0.028
 0.130, 0.076, 0.986, 0.451,-0.906, 0.073
 0.132, 0.089, 0.989, 0.533,-0.885, 0.084
 0.140, 0.118, 1.008, 0.546,-0.767, 0.124
 0.145, 0.124, 1.008, 0.474,-0.715, 0.115
 0.146, 0.140, 0.985, 0.341,-0.603, 0.091
 0.152, 0.129, 0.960, 0.256,-0.558, 0.076
 0.155, 0.142, 0.949, 0.057,-0.505, 0.076
 0.152, 0.128, 0.965,-0.052,-0.482, 0.084
 0.179, 0.124, 0.957,-0.052,-0.479, 0.074
 0.175, 0.127, 0.955,-0.022,-0.476, 0.057
 0.182, 0.129, 0.964, 0.043,-0.472, 0.017
 0.196, 0.149, 0.998, 0.090,-0.452,-0.018
 0.219, 0.159, 1.012, 0.087,-0.439,-0.053
 0.215, 0.149, 1.000, 0.085,-0.468,-0.084
 0.199, 0.137, 0.962, 0.094,-0.579,-0.111
 0.190, 0.158, 0.924, 0.089,-0.723,-0.179
 0.195, 0.170, 0.927, 0.093,-0.942,-0.252
 0.221, 0.153, 0.942, 0.099,-1.080,-0.297
 0.213, 0.148, 0.936, 0.065,-1.172,-0.279
 0.241, 0.152, 0.947, 0.005,-1.275,-0.208
 0.244, 0.129, 0.901,-0.014,-1.406,-0.144
 0.251, 0.126, 0.875, 0.012,-1.613,-0.114
 0.270, 0.137, 0.833, 0.072,-1.881,-0.085
 0.275, 0.113, 0.801, 0.161,-2.210,-0.040
 0.331, 0.112, 0.889, 0.246,-2.358,-0.012
 0.402, 0.167, 1.180, 0.278,-1.917,-0.025
 0.420, 0.223, 1.150, 0.148,-1.444,-0.046
 0.440, 0.184, 1.035, 0.035,-1.205,-0.026
 0.433, 0.126, 0.908,-0.047,-1.163,-0.021
 0.433, 0.104, 0.877,-0.119,-1.213, 0.072
 0.423, 0.132, 0.881,-0.153,-1.191, 0.087
 0.418, 0.165, 0.887,-0.167,-1.150, 0.080
 0.430, 0.176, 0.894,-0.217,-1.097, 0.015
 0.445, 0.156, 0.895,-0.229,-1.058,-0.006
 0.473, 0.136, 0.889,-0.146,-0.939,-0.030
 0.477, 0.127, 0.857,-0.056,-0.898,-0.039
 0.463, 0.120, 0.831,-0.016,-0.920,-0.004
 0.469, 0.139, 0.833,-0.027,-0.933, 0.030
 0.481, 0.145, 0.826,-0.057,-0.931, 0.030
 0.490, 0.155, 0.840,-0.094,-0.918, 0.011
 0.497, 0.144, 0.840,-0.116,-0.904,-0.005
 0.505, 0.132, 0.850,-0.119,-0.872,-0.022
 0.514, 0.135, 0.826,-0.132,-0.853,-0.026
 0.512, 0.142, 0.801,-0.187,-0.838,-0.111
 0.534, 0.134, 0.798,-0.239,-0.815,-0.103
 0.532, 0.126, 0.826,-0.210,-0.800,-0.048
 0.546, 0.138, 0.853,-0.201,-0.785,-0.055
 0.561, 0.125, 0.813,-0.235,-0.661,-0.064
 0.560, 0.132, 0.812,-0.224,-0.604,-0.058
 0.556, 0.120, 0.820,-0.170,-0.609,-0.047
 0.554, 0.115, 0.820,-0.110,-0.599,-0.038
 0.555, 0.116, 0.816,-0.065,-0.621,-0.034
 0.560, 0.119, 0.792,-0.053,-0.627,-0.025
 0.562, 0.111, 0.802,-0.017,-0.665,-0.018
 0.564, 0.109, 0.805,-0.021,-0.721,-0.011
 0.589, 0.110, 0.791,-0.032,-0.735, 0.011
 0.602, 0.122, 0.787,-0.048,-0.746,-0.034
 0.611, 0.128, 0.780,-0.071,-0.757,-0.038
 0.617, 0.127, 0.787,-0.112,-0.782,-0.035
 0.620, 0.113, 0.786,-0.160,-0.799,-0.063
 0.608, 0.118, 0.755,-0.221,-0.804,-0.055
 0.639, 0.125, 0.776,-0.144,-0.823,-0.027
 0.634, 0.127, 0.791,-0.033,-0.899,-0.058
 0.678, 0.138, 0.751,-0.000,-0.915,-0.097
 0.659, 0.112, 0.748,-0.011,-0.938,-0.096
 0.654, 0.123, 0.736,-0.073,-0.965,-0.082
 0.658, 0.135, 0.714,-0.206,-0.947,-0.052
 0.670, 0.112, 0.726,-0.211,-0.969, 0.025
 0.694, 0.105, 0.739,-0.143,-1.003, 0.049
 0.727, 0.119, 0.701,-0.214,-0.983, 0.015
 0.690, 0.103, 0.706,-0.172,-0.968, 0.034
 0.669, 0.126, 0.697,-0.206,-0.943, 0.019
 0.708, 0.121, 0.690,-0.269,-0.906, 0.034
 0.708, 0.101, 0.704,-0.234,-0.883, 0.071
 0.735, 0.078, 0.708,-0.203,-0.842, 0.068
 0.750, 0.105, 0.710,-0.180,-0.801, 0.072
 0.731, 0.106, 0.710,-0.107,-0.792, 0.071
 0.733, 0.118, 0.693,-0.089,-0.753, 0.071
 0.736, 0.107, 0.674,-0.067,-0.753, 0.072
 0.733, 0.092, 0.668,-0.037,-0.687, 0.068
 0.739, 0.097, 0.667,-0.033,-0.649, 0.063
 0.744, 0.093, 0.654,-0.028,-0.596, 0.051
 0.750, 0.095, 0.649,-0.040,-0.533, 0.018
 0.754, 0.097, 0.619,-0.079,-0.456,-0.033
 0.741, 0.086, 0.639,-0.057,-0.444,-0.022
 0.773, 0.099, 0.648,-0.019,-0.480, 0.012
 0.766, 0.109, 0.634, 0.005,-0.399,-0.053
 0.759, 0.105, 0.632,-0.025,-0.381,-0.008
 0.750, 0.108, 0.619,-0.061,-0.344,-0.007
 0.754, 0.097, 0.610,-0.081,-0.305,-0.021
 0.766, 0.095, 0.618,-0.067,-0.274, 0.004
 0.777, 0.098, 0.635,-0.024,-0.161,-0.006
 0.779, 0.102, 0.622,-0.025,-0.096, 0.001
 0.777, 0.076, 0.629,-0.023,-0.036, 0.010
 0.777, 0.093, 0.641,-0.026, 0.115, 0.013
 0.772, 0.102, 0.648,-0.011, 0.241, 0.002
 0.774, 0.102, 0.655, 0.016, 0.435,-0.006
 0.786, 0.094, 0.661, 0.083, 0.608,-0.006
 0.759, 0.103, 0.665, 0.102, 0.752,-0.016
 0.751, 0.111, 0.676, 0.188, 0.923,-0.060
 0.743, 0.104, 0.701, 0.294, 1.145,-0.093
 0.739, 0.110, 0.725, 0.368, 1.351,-0.111
 0.735, 0.109, 0.732, 0.448, 1.557,-0.116
 0.718, 0.097, 0.733, 0.559, 1.710,-0.075
 0.723, 0.122, 0.755, 0.636, 1.934,-0.028
 0.733, 0.102, 0.761, 0.681, 2.158, 0.076
 0.733, 0.099, 0.748, 0.744, 2.398, 0.178
 0.727, 0.135, 0.747, 0.769, 2.586, 0.223
 0.699, 0.138, 0.753, 0.778, 2.692, 0.253
 0.651, 0.197, 0.733, 0.552, 2.798, 0.362
 0.657, 0.173, 0.756, 0.436, 2.875, 0.310
 0.638, 0.137, 0.784, 0.386, 2.942, 0.280
 0.637, 0.135, 0.798, 0.386, 2.994, 0.241
 0.638, 0.120, 0.826, 0.389, 3.063, 0.214
 0.580, 0.126, 0.848, 0.436, 3.071, 0.179
 0.557, 0.147, 0.851, 0.449, 3.070, 0.133
 0.522, 0.144, 0.896, 0.411, 3.046, 0.100
 0.490, 0.177, 0.922, 0.323, 3.038, 0.065
 0.463, 0.207, 0.940, 0.204, 3.056,-0.004
 0.435, 0.173, 0.943, 0.199, 3.068,-0.051
 0.393, 0.163, 0.954, 0.170, 3.100,-0.075
 0.338, 0.149, 0.943, 0.173, 3.125,-0.080
 0.356, 0.135, 0.960, 0.206, 3.170,-0.118
 0.322, 0.200, 0.948,-0.004, 3.179,-0.121
 0.262, 0.208, 0.951,-0.153, 3.122,-0.149
 0.219, 0.152, 0.905,-0.168, 3.011,-0.171
 0.196, 0.124, 0.912,-0.232, 2.930,-0.148
 0.162, 0.135, 0.944,-0.222, 2.867,-0.126
 0.138, 0.144, 0.941,-0.199, 2.797,-0.101
 0.114, 0.164, 0.952,-0.213, 2.747,-0.057
 0.116, 0.167, 0.961,-0.331, 2.734,-0.025
 0.073, 0.161, 0.973,-0.398, 2.747, 0.017
 0.048, 0.162, 0.972,-0.467, 2.759, 0.061
 0.017, 0.150, 0.995,-0.516, 2.845, 0.098
-0.009, 0.151, 0.970,-0.561, 2.885, 0.103
-0.043, 0.161, 0.978,-0.640, 2.912, 0.075
-0.079, 0.145, 0.967,-0.711, 2.915, 0.040
-0.109, 0.106, 0.963,-0.745, 2.893, 0.041
-0.141, 0.082, 0.976,-0.752, 2.877, 0.026
-0.181, 0.077, 0.975,-0.705, 2.868,-0.007
-0.195, 0.088, 0.967,-0.629, 2.839,-0.018
-0.227, 0.092, 0.979,-0.560, 2.835, 0.001
-0.247, 0.100, 0.983,-0.530, 2.835,-0.031
-0.252, 0.099, 0.969,-0.507, 2.865,-0.082
-0.282, 0.151, 0.987,-0.484, 2.924,-0.201
-0.309, 0.100, 0.906,-0.524, 2.896,-0.214
-0.379, 0.026, 0.884,-0.514, 2.842,-0.144
-0.399, 0.018, 0.857,-0.439, 2.764,-0.078
-0.394, 0.008, 0.861,-0.299, 2.732,-0.033
-0.410, 0.005, 0.873,-0.131, 2.728, 0.009
-0.415, 0.015, 0.881, 0.111, 2.772, 0.028
-0.434, 0.016, 0.884, 0.230, 2.846, 0.047
-0.463, 0.031, 0.859, 0.247, 2.925, 0.117
-0.505, 0.058, 0.844, 0.206, 2.985, 0.108
-0.555, 0.083, 0.784, 0.152, 2.975, 0.062
-0.591, 0.086, 0.734, 0.044, 2.874, 0.002
-0.611, 0.080, 0.696,-0.107, 2.744,-0.038
-0.630, 0.089, 0.697,-0.204, 2.623,-0.070
-0.650, 0.067, 0.729,-0.199, 2.568,-0.062
-0.660, 0.064, 0.738,-0.159, 2.569,-0.065
-0.680, 0.058, 0.726,-0.135, 2.591,-0.064
-0.721, 0.053, 0.666,-0.130, 2.559,-0.049
-0.715, 0.059, 0.604,-0.168, 2.515,-0.046
-0.756, 0.049, 0.589,-0.175, 2.360,-0.050
-0.769, 0.037, 0.586,-0.054, 2.271,-0.051
-0.779, 0.042, 0.606, 0.040, 2.232,-0.041
-0.784, 0.038, 0.628, 0.101, 2.242,-0.020
-0.774, 0.052, 0.614, 0.129, 2.276,-0.022
-0.818, 0.045, 0.546, 0.050, 2.278, 0.014
-0.858, 0.049, 0.479,-0.018, 2.126, 0.050
-0.906, 0.048, 0.437,-0.045, 1.927, 0.075
-0.893, 0.079, 0.427,-0.051, 1.752, 0.093
-0.887, 0.064, 0.450,-0.013, 1.621, 0.120
-0.880, 0.062, 0.448, 0.027, 1.564, 0.131
-0.896, 0.059, 0.457, 0.069, 1.501, 0.193
-0.927, 0.002, 0.435, 0.123, 1.459, 0.258
-0.921, 0.023, 0.421, 0.183, 1.451, 0.288
-0.899, 0.022, 0.403, 0.237, 1.439, 0.292
-0.912, 0.019, 0.417, 0.307, 1.448, 0.315
-0.909, 0.048, 0.395, 0.360, 1.489, 0.331
-0.933, 0.000, 0.416, 0.389, 1.549, 0.385
-0.970, 0.085, 0.376, 0.391, 1.596, 0.416
-0.913, 0.086, 0.408, 0.396, 1.685, 0.401
-0.865, 0.079, 0.462, 0.420, 1.859, 0.424
-0.930, 0.138, 0.327, 0.318, 1.923, 0.409
-0.912, 0.116, 0.315, 0.255, 1.991, 0.367
-0.926, 0.103, 0.233, 0.236, 2.006, 0.321
-0.970, 0.067, 0.178, 0.221, 1.971, 0.276
-1.028, 0.092, 0.097, 0.204, 1.802, 0.231
-1.027, 0.131, 0.069, 0.236, 1.558, 0.216
-0.979, 0.137, 0.121, 0.354, 1.419, 0.136
-0.970, 0.147, 0.179, 0.445, 1.406, 0.121
-0.952, 0.168, 0.204, 0.469, 1.505, 0.093
-0.940, 0.139, 0.211, 0.503, 1.658, 0.018
-0.931, 0.141, 0.180, 0.441, 1.733,-0.056
-0.953, 0.134, 0.113, 0.282, 1.787,-0.045
-0.968, 0.141, 0.090, 0.132, 1.811,-0.025
-0.971, 0.155, 0.079, 0.014, 1.830,-0.043
-0.978, 0.138, 0.074,-0.006, 1.858,-0.066
-0.974, 0.149, 0.031, 0.006, 1.849,-0.104
-0.970, 0.148, 0.047, 0.049, 1.858,-0.136
-0.962, 0.106, 0.027, 0.103, 1.839,-0.143
-0.948, 0.115, 0.020, 0.169, 1.910,-0.121
-0.955, 0.110,-0.008, 0.233, 1.952,-0.100
-0.960, 0.147,-0.055, 0.194, 1.944,-0.081
-0.955, 0.142,-0.103, 0.126, 1.907,-0.066
-0.968, 0.102,-0.129, 0.073, 1.862,-0.036
-0.987, 0.105,-0.167, 0.121, 1.760, 0.009
-0.998, 0.117,-0.184, 0.135, 1.635, 0.039
-0.992, 0.132,-0.193, 0.125, 1.558, 0.049
-0.975, 0.130,-0.199, 0.129, 1.529, 0.044
-1.000, 0.122,-0.166, 0.104, 1.468, 0.060
-0.982, 0.108,-0.168, 0.158, 1.483, 0.055
-0.978, 0.126,-0.216, 0.153, 1.459, 0.065
-0.960, 0.133,-0.253, 0.104, 1.416, 0.063
-0.973, 0.101,-0.254, 0.119, 1.348, 0.085
-0.939, 0.094,-0.271, 0.132, 1.297, 0.118
-0.955, 0.091,-0.277, 0.195, 1.290, 0.166
-0.979, 0.098,-0.261, 0.242, 1.251, 0.203
-0.952, 0.148,-0.273, 0.244, 1.314, 0.209
-0.956, 0.139,-0.263, 0.220, 1.391, 0.207
-0.953, 0.157,-0.283, 0.152, 1.432, 0.181
-0.955, 0.125,-0.263, 0.183, 1.509, 0.189
-0.928, 0.128,-0.282, 0.237, 1.607, 0.206
-0.908, 0.116,-0.308, 0.339, 1.689, 0.237
-0.901, 0.141,-0.359, 0.300, 1.692, 0.242
-0.910, 0.103,-0.353, 0.305, 1.672, 0.288
-0.875, 0.147,-0.433, 0.214, 1.671, 0.229
-0.859, 0.149,-0.456, 0.103, 1.670, 0.238
-0.873, 0.134,-0.484, 0.011, 1.643, 0.251
-0.889, 0.134,-0.494,-0.013, 1.588, 0.264
-0.872, 0.139,-0.506, 0.041, 1.558, 0.246
-0.874, 0.145,-0.507, 0.179, 1.510, 0.204
-0.845, 0.136,-0.534, 0.313, 1.520, 0.135
-0.845, 0.133,-0.511, 0.433, 1.539, 0.079
-0.839, 0.108,-0.524, 0.550, 1.564, 0.078
-0.830, 0.132,-0.555, 0.569, 1.561, 0.098
-0.827, 0.156,-0.571, 0.463, 1.537, 0.108
-0.788, 0.151,-0.581, 0.358, 1.497, 0.095
-0.803, 0.131,-0.583, 0.272, 1.485, 0.090
-0.789, 0.108,-0.591, 0.260, 1.453, 0.089
-0.782, 0.117,-0.612, 0.232, 1.412, 0.070
-0.784, 0.122,-0.629, 0.212, 1.357, 0.070
-0.770, 0.122,-0.635, 0.171, 1.313, 0.078
-0.741, 0.121,-0.646, 0.141, 1.268, 0.077
-0.759, 0.111,-0.662, 0.110, 1.212, 0.090
-0.756, 0.118,-0.697, 0.079, 1.122, 0.101
-0.736, 0.146,-0.718, 0.018, 1.025, 0.085
-0.738, 0.141,-0.725, 0.002, 0.894, 0.046
-0.725, 0.144,-0.726, 0.055, 0.788, 0.046
-0.715, 0.151,-0.730, 0.119, 0.712,-0.025
-0.701, 0.140,-0.733, 0.124, 0.577,-0.043
-0.692, 0.136,-0.752, 0.050, 0.459,-0.055
-0.689, 0.116,-0.729, 0.011, 0.356,-0.055
-0.687, 0.123,-0.714, 0.006, 0.282,-0.063
-0.682, 0.121,-0.706, 0.011, 0.220,-0.088
-0.680, 0.116,-0.712, 0.020, 0.170,-0.119
-0.670, 0.119,-0.711, 0.040, 0.109,-0.157
-0.665, 0.123,-0.720, 0.054, 0.049,-0.198
-0.666, 0.129,-0.715, 0.009, 0.029,-0.234
-0.678, 0.137,-0.711,-0.044,-0.043,-0.246
-0.687, 0.117,-0.710,-0.083,-0.071,-0.260
-0.683, 0.111,-0.724,-0.140,-0.132,-0.283
-0.684, 0.114,-0.747,-0.161,-0.241,-0.325
-0.680, 0.126,-0.744,-0.162,-0.375,-0.388
-0.688, 0.126,-0.740,-0.121,-0.485,-0.447
-0.688, 0.124,-0.734,-0.110,-0.626,-0.490
-0.702, 0.122,-0.696,-0.156,-0.714,-0.485
-0.711, 0.123,-0.722,-0.276,-0.803,-0.499
-0.719, 0.124,-0.751,-0.413,-0.924,-0.515
-0.737, 0.151,-0.781,-0.547,-1.186,-0.554
-0.738, 0.136,-0.785,-0.612,-1.370,-0.591
-0.754, 0.103,-0.726,-0.546,-1.529,-0.623
-0.754, 0.098,-0.663,-0.456,-1.575,-0.683
-0.760, 0.088,-0.638,-0.435,-1.603,-0.741
-0.765, 0.081,-0.619,-0.477,-1.654,-0.769
-0.767, 0.090,-0.601,-0.563,-1.691,-0.783
-0.774, 0.077,-0.599,-0.623,-1.766,-0.797
-0.814, 0.083,-0.604,-0.627,-1.838,-0.798
-0.860, 0.085,-0.554,-0.600,-1.935,-0.770
-0.849, 0.094,-0.513,-0.563,-1.951,-0.741
-0.853, 0.075,-0.472,-0.535,-1.901,-0.705
-0.865, 0.066,-0.416,-0.532,-1.814,-0.658
-0.859, 0.060,-0.382,-0.556,-1.706,-0.589
-0.860, 0.034,-0.382,-0.522,-1.562,-0.483
-0.873, 0.049,-0.400,-0.481,-1.522,-0.380
-0.895, 0.062,-0.437,-0.371,-1.548,-0.307
-0.912, 0.090,-0.445,-0.332,-1.613,-0.265
-0.926, 0.094,-0.438,-0.311,-1.716,-0.239
-0.934, 0.088,-0.414,-0.220,-1.765,-0.209
-0.939, 0.087,-0.365,-0.171,-1.781,-0.178
-0.941, 0.070,-0.341,-0.146,-1.779,-0.115
-0.954, 0.046,-0.341,-0.140,-1.795,-0.051
-0.954, 0.057,-0.323,-0.150,-1.817,-0.003
-0.963, 0.062,-0.318,-0.180,-1.849, 0.022
-0.980, 0.063,-0.331,-0.260,-1.919, 0.025
-0.984, 0.071,-0.331,-0.379,-2.021, 0.014
-0.987, 0.057,-0.264,-0.392,-2.040,-0.012
-0.991, 0.059,-0.234,-0.323,-2.040,-0.028
-0.982, 0.080,-0.223,-0.323,-2.057,-0.117
-0.993, 0.077,-0.209,-0.331,-2.097,-0.204
-0.988, 0.076,-0.197,-0.332,-2.158,-0.295
-0.994, 0.083,-0.186,-0.319,-2.219,-0.308
-1.014, 0.081,-0.197,-0.291,-2.378,-0.323
-1.016, 0.079,-0.178,-0.259,-2.511,-0.297
-1.013, 0.079,-0.193,-0.199,-2.674,-0.263
-1.016, 0.069,-0.153,-0.175,-2.853,-0.328
-1.009, 0.057,-0.112,-0.074,-3.008,-0.375
-0.989, 0.030,-0.015,-0.021,-3.079,-0.382
-0.978,-0.008, 0.076, 0.028,-3.042,-0.339
-0.971,-0.036, 0.138, 0.073,-2.926,-0.286
-0.958,-0.022, 0.224, 0.077,-2.775,-0.221
-0.943, 0.018, 0.252, 0.026,-2.617,-0.184
-0.941, 0.029, 0.236,-0.118,-2.532,-0.168
-0.943, 0.020, 0.213,-0.174,-2.505,-0.165
-0.951, 0.013, 0.192,-0.125,-2.540,-0.180
-0.962, 0.014, 0.181,-0.049,-2.644,-0.190
-0.976, 0.017, 0.144,-0.026,-2.815,-0.209
-0.976, 0.035, 0.158,-0.064,-2.990,-0.200
-0.957, 0.051, 0.251,-0.073,-3.102,-0.214
-0.924, 0.017, 0.331,-0.041,-3.131,-0.216
-0.888, 0.012, 0.426,-0.001,-3.074,-0.188
-0.848,-0.038, 0.526, 0.036,-2.931,-0.125
-0.800,-0.041, 0.546, 0.037,-2.697,-0.072
-0.796,-0.025, 0.561,-0.013,-2.534,-0.050
-0.783,-0.002, 0.574,-0.081,-2.373,-0.032
-0.802, 0.009, 0.539,-0.155,-2.314,-0.023
-0.831, 0.013, 0.475,-0.211,-2.381,-0.025
-0.849, 0.027, 0.448,-0.321,-2.494,-0.063
-0.839, 0.037, 0.462,-0.360,-2.674,-0.106
-0.823, 0.014, 0.490,-0.352,-2.812,-0.120
-0.784,-0.031, 0.574,-0.269,-2.884,-0.127
-0.731,-0.063, 0.692,-0.118,-2.836,-0.128
-0.688,-0.044, 0.719, 0.015,-2.759,-0.116
-0.675,-0.050, 0.757, 0.095,-2.626,-0.070
-0.650,-0.053, 0.796, 0.184,-2.448,-0.055
-0.620,-0.038, 0.815, 0.271,-2.293, 0.000
-0.602,-0.014, 0.782, 0.300,-2.217, 0.046
-0.613, 0.001, 0.725, 0.221,-2.184, 0.029
-0.622, 0.017, 0.679, 0.076,-2.269, 0.045
-0.601, 0.019, 0.697,-0.019,-2.366, 0.023
-0.575, 0.002, 0.716,-0.015,-2.436,-0.009
-0.558,-0.019, 0.737, 0.043,-2.503, 0.001
-0.519,-0.026, 0.793, 0.103,-2.526, 0.017
-0.491,-0.018, 0.841, 0.171,-2.468, 0.054
-0.454,-0.030, 0.894, 0.247,-2.383, 0.080
-0.428,-0.009, 0.921, 0.276,-2.293, 0.099
-0.413, 0.017, 0.912, 0.269,-2.244, 0.101
-0.419, 0.018, 0.883, 0.272,-2.256, 0.099
-0.442, 0.006, 0.822, 0.261,-2.377, 0.094
-0.441, 0.006, 0.783, 0.235,-2.567, 0.071
-0.409, 0.008, 0.802, 0.341,-2.729, 0.022
-0.370, 0.013, 0.812, 0.404,-2.801,-0.042
-0.321, 0.005, 0.849, 0.525,-2.900,-0.093
-0.273,-0.001, 0.892, 0.575,-2.860,-0.115
-0.208, 0.033, 0.950, 0.655,-2.824,-0.123
-0.208, 0.012, 1.002, 0.634,-2.711,-0.105
-0.167, 0.036, 1.026, 0.610,-2.573,-0.137
-0.140, 0.075, 1.058, 0.572,-2.407,-0.151
-0.121, 0.087, 1.040, 0.418,-2.271,-0.136
-0.118, 0.071, 0.998, 0.306,-2.210,-0.124
-0.117, 0.073, 0.971, 0.273,-2.213,-0.135
-0.098, 0.082, 0.962, 0.277,-2.214,-0.155
-0.086, 0.085, 0.938, 0.278,-2.247,-0.189
-0.070, 0.085, 0.928, 0.258,-2.292,-0.225
-0.040, 0.102, 0.945, 0.230,-2.315,-0.260
 0.008, 0.103, 0.957, 0.091,-2.322,-0.249
 0.031, 0.111, 0.968,-0.050,-2.314,-0.239
 0.047, 0.089, 0.984,-0.129,-2.318,-0.239
 0.083, 0.075, 1.025,-0.140,-2.266,-0.251
 0.106, 0.060, 1.041,-0.121,-2.200,-0.248
 0.139, 0.029, 1.035,-0.089,-2.132,-0.231
 0.135, 0.048, 1.056,-0.064,-2.020,-0.203
 0.181, 0.046, 1.057,-0.038,-1.869,-0.174
 0.193, 0.050, 1.082,-0.006,-1.703,-0.161
 0.207, 0.055, 1.052, 0.016,-1.470,-0.139
 0.202, 0.063, 1.035, 0.027,-1.315,-0.109
 0.204, 0.070, 1.026, 0.004,-1.170,-0.066
 0.198, 0.071, 1.011,-0.018,-1.056,-0.042
 0.218, 0.073, 1.003,-0.032,-0.881,-0.035
 0.220, 0.056, 1.003, 0.017,-0.744,-0.035
 0.222, 0.067, 1.001, 0.067,-0.573,-0.035
 0.221, 0.068, 0.995, 0.110,-0.411,-0.040
 0.230, 0.069, 0.986, 0.136,-0.237,-0.026
 0.230, 0.089, 0.949, 0.124,-0.065,-0.012
 0.235, 0.067, 0.950, 0.125, 0.125, 0.030
 0.199, 0.083, 0.973,-0.031, 0.345, 0.095
 0.227, 0.085, 1.016,-0.155, 0.602, 0.148
 0.236, 0.064, 1.015,-0.110, 0.835, 0.166
 0.212, 0.079, 0.983,-0.088, 1.012, 0.154
 0.215, 0.097, 1.010,-0.015, 1.156, 0.060
 0.170, 0.095, 1.016,-0.064, 1.315,-0.036
 0.174, 0.138, 1.028,-0.417, 1.428,-0.016
 0.157, 0.099, 0.990,-0.572, 1.312,-0.013
 0.162, 0.090, 1.008,-0.543, 1.278, 0.046
 0.147, 0.095, 1.034,-0.578, 1.318, 0.164
 0.134, 0.084, 1.014,-0.676, 1.383, 0.367
 0.115, 0.092, 1.015,-0.770, 1.435, 0.440
 0.105, 0.045, 1.046,-0.732, 1.485, 0.399
 0.104,-0.036, 1.064,-0.506, 1.535, 0.356
 0.087,-0.095, 1.038,-0.197, 1.556, 0.330
 0.054,-0.066, 0.983,-0.042, 1.494, 0.280
-0.001, 0.029, 0.923,-0.142, 1.279, 0.218
-0.030, 0.085, 0.923,-0.417, 1.053, 0.184
 0.003, 0.068, 1.007,-0.633, 0.947, 0.187
 0.013,-0.007, 1.031,-0.651, 0.964, 0.228
-0.013,-0.044, 1.026,-0.578, 0.953, 0.238
-0.043,-0.016, 0.979,-0.445, 0.841, 0.202
-0.078,-0.047, 0.909,-0.395, 0.564, 0.188
-0.094,-0.091, 0.926,-0.282, 0.291, 0.233
-0.064,-0.031, 0.965,-0.226, 0.116, 0.214
-0.045,-0.013, 0.976,-0.298,-0.010, 0.149
-0.062,-0.054, 0.965,-0.292,-0.290, 0.223
-0.055,-0.105, 0.962,-0.191,-0.525, 0.275
-0.027,-0.066, 0.973,-0.139,-0.620, 0.235
 0.009,-0.053, 1.014,-0.016,-0.530, 0.172
 0.011,-0.050, 1.004, 0.071,-0.393, 0.146
-0.002,-0.003, 1.008, 0.122,-0.295, 0.174
-0.012,-0.022, 1.007, 0.150,-0.261, 0.222
 0.008,-0.004, 1.036, 0.157,-0.165, 0.275
 0.030,-0.018, 1.034, 0.147, 0.005, 0.263
 0.055, 0.008, 1.018, 0.074, 0.271, 0.225
-0.002,-0.033, 0.987, 0.066, 0.464, 0.245
-0.026,-0.018, 1.011, 0.133, 0.541, 0.311
-0.047,-0.011, 0.996, 0.160, 0.502, 0.387
-0.063, 0.007, 1.009, 0.105, 0.510, 0.447
-0.068, 0.008, 1.014, 0.024, 0.527, 0.483
-0.070,-0.013, 1.022,-0.013, 0.538, 0.496
-0.074,-0.014, 1.022,-0.002, 0.541, 0.484
-0.077,-0.025, 0.994,-0.034, 0.537, 0.452
-0.084,-0.032, 0.988,-0.040, 0.541, 0.412
-0.077,-0.043, 0.967,-0.099, 0.562, 0.356
-0.081,-0.053, 0.972,-0.021, 0.603, 0.311
-0.069,-0.053, 0.988, 0.116, 0.639, 0.302
-0.066,-0.063, 0.986, 0.232, 0.688, 0.339
-0.057,-0.019, 0.988, 0.271, 0.767, 0.348
-0.064,-0.027, 0.977, 0.236, 0.846, 0.373
-0.070,-0.002, 0.964, 0.153, 0.868, 0.398
-0.090,-0.010, 0.934, 0.048, 0.881, 0.412
-0.115,-0.001, 0.923,-0.029, 0.863, 0.421
-0.131, 0.020, 0.932,-0.109, 0.903, 0.446
-0.110, 0.002, 0.966,-0.195, 0.929, 0.507
-0.090, 0.007, 1.012,-0.191, 0.980, 0.541
-0.098,-0.037, 1.059,-0.109, 0.955, 0.549
-0.100,-0.033, 1.071, 0.001, 0.850, 0.520
-0.131,-0.048, 1.074, 0.152, 0.706, 0.397
-0.140,-0.028, 1.044, 0.182, 0.477, 0.309
-0.125,-0.026, 1.082, 0.234, 0.368, 0.207
-0.122,-0.022, 1.072, 0.353, 0.269, 0.097
-0.142,-0.026, 1.022, 0.500, 0.152,-0.017
-0.114, 0.103, 0.966, 0.417, 0.226,-0.205
-0.159, 0.066, 0.959, 0.182, 0.291,-0.165
-0.150, 0.057, 0.959, 0.040, 0.390,-0.069
-0.126, 0.065, 1.027, 0.113, 0.550,-0.019
-0.121, 0.034, 1.045, 0.287, 0.839, 0.023
-0.121, 0.015, 1.023, 0.462, 1.029, 0.026
-0.130, 0.062, 0.988, 0.500, 1.171, 0.004
-0.173, 0.042, 0.954, 0.319, 1.229,-0.019
-0.203, 0.052, 0.958, 0.241, 1.171,-0.082
-0.205, 0.048, 0.966, 0.245, 1.078,-0.184
-1.991,-0.116, 1.991, 0.013,-0.981,-0.285
 0.237, 0.192, 0.993, 0.441,-0.275,-0.584
-0.076, 0.024, 0.887, 0.270, 0.523,-0.515
-0.420,-0.686, 1.181,-0.202,-0.205,-0.397
-0.516, 0.265, 0.879, 0.031,-0.512,-0.427
-0.602, 0.123, 1.077,-0.015,-0.154,-0.447
 0.039,-0.032, 0.894, 0.005,-0.441,-0.372
-0.261,-0.114, 0.948, 0.130,-0.409,-0.272
-0.156, 0.040, 1.005, 0.058,-0.459,-0.668
-0.421, 0.134, 0.979, 0.178,-0.353,-0.841
-0.306,-0.000, 0.906, 0.075,-0.434,-0.752
-0.423, 0.055, 0.966, 0.118,-0.409,-0.834
-0.298, 0.109, 0.983, 0.105,-0.392,-0.945
-0.201, 0.035, 0.981, 0.051,-0.381,-0.958
-0.208,-0.053, 0.943,-0.062,-0.445,-0.778
-0.239,-0.051, 0.902,-0.085,-0.575,-0.668
-0.184, 0.004, 1.056,-0.063,-0.517,-0.634
-0.105, 0.004, 1.193,-0.017,-0.213,-0.636
-0.062,-0.123, 1.297, 0.322, 0.220,-0.637
 0.040,-0.141, 1.137, 0.521, 0.564,-0.303
-0.229,-0.135, 0.938,-0.261, 0.468, 0.323
-0.269, 0.170, 1.070,-1.082, 0.426, 0.415
-0.189, 0.141, 1.115,-0.774, 0.639, 0.138
-0.208,-0.007, 0.994,-0.076, 0.792,-0.210
-0.217,-0.134, 0.890, 0.523, 0.739,-0.279
-0.300,-0.001, 0.807, 0.549, 0.519,-0.237
-0.326, 0.102, 0.807, 0.285, 0.267,-0.240
-0.323, 0.080, 0.774, 0.075,-0.040,-0.257
-0.335, 0.076, 0.718,-0.035,-0.391,-0.316
-0.329,-0.003, 0.650,-0.053,-0.864,-0.301
-0.397,-0.028, 0.639,-0.070,-1.342,-0.241
-0.333,-0.015, 0.704,-0.151,-1.806,-0.190
-0.286,-0.020, 0.793,-0.181,-2.142,-0.127
-0.198,-0.046, 0.863,-0.291,-2.347,-0.004
-0.117,-0.019, 0.937,-0.421,-2.432, 0.113
-0.088,-0.002, 1.029,-0.585,-2.427, 0.167
-0.049, 0.029, 1.046,-0.811,-2.374, 0.153
-0.007, 0.102, 1.082,-0.929,-2.248, 0.089
 0.018, 0.007, 1.164,-0.950,-2.014, 0.026
 0.156,-0.179, 1.377,-0.664,-1.412, 0.089
 0.331,-0.152, 1.606,-0.257,-0.360, 0.068
 0.052,-0.045, 1.117,-0.085,-0.010, 0.012
-0.049,-0.044, 0.926,-0.093,-0.075, 0.034
-0.010,-0.060, 1.009,-0.104,-0.126, 0.040
-0.000,-0.056, 1.024,-0.053,-0.089, 0.044
-0.002,-0.087, 1.008, 0.050,-0.059, 0.055
 0.005,-0.037, 1.029, 0.053,-0.024, 0.045
-0.027, 0.023, 0.991,-0.064,-0.007, 0.043
-0.077,-0.016, 0.917,-0.181,-0.166,-0.010
-0.051,-0.047, 0.917,-0.183,-0.303,-0.081
-0.075, 0.059, 0.896,-0.283,-0.458,-0.183
-0.170,-0.001, 0.539,-0.382,-0.711,-0.130
-0.086, 0.121, 0.661, 0.320,-0.095, 0.049
 0.002,-0.030, 0.983, 0.330,-0.000, 0.005
 0.002, 0.012, 1.025, 0.110, 0.001, 0.006
-0.005,-0.023, 1.028,-0.000,-0.004,-0.001
-0.000,-0.052, 1.001,-0.018, 0.002, 0.001
-0.002,-0.065, 0.994, 0.025,-0.002, 0.011
-0.001,-0.064, 0.998, 0.096,-0.001,-0.001
 0.003,-0.050, 1.001, 0.108,-0.002,-0.002
 0.007,-0.027, 1.007, 0.096, 0.002,-0.001
 0.001,-0.024, 1.002, 0.026,-0.001, 0.006
 0.003,-0.052, 1.002,-0.009,-0.001, 0.000
 0.004,-0.051, 0.991, 0.008,-0.001,-0.004
 0.003,-0.047, 1.005, 0.003,-0.002, 0.003
-0.004,-0.047, 1.006, 0.005,-0.000,-0.005
-0.004,-0.047, 1.000, 0.001, 0.002, 0.000
-0.001,-0.047, 1.008, 0.011, 0.001,-0.006
-0.001,-0.045, 1.000, 0.003, 0.006, 0.002
-0.001,-0.045, 0.996,-0.002,-0.001,-0.001
 0.004,-0.063, 0.996, 0.002,-0.001,-0.002
 0.004,-0.043, 1.002, 0.004, 0.006, 0.001
 0.006,-0.045, 1.003, 0.002, 0.001, 0.003
-0.001,-0.048, 1.007, 0.002, 0.004,-0.001
 0.003,-0.047, 1.007, 0.001,-0.005, 0.004
-0.003,-0.046, 1.002, 0.005, 0.001,-0.003
 0.003,-0.043, 1.000, 0.001, 0.005,-0.001
 0.001,-0.043, 0.998, 0.007, 0.002, 0.001
-0.001,-0.042, 1.008,-0.001, 0.002, 0.000
-0.004,-0.047, 1.005, 0.008,-0.004,-0.000
-0.000,-0.042, 0.998,-0.003,-0.002,-0.003
 0.004,-0.044, 0.999,-0.003, 0.004, 0.003
-0.002,-0.059, 1.006, 0.015, 0.000,-0.003
 0.000,-0.044, 1.008, 0.004, 0.004,-0.001
 0.005,-0.042, 0.998, 0.003,-0.002, 0.001
-0.000,-0.048, 0.994, 0.018, 0.001, 0.003
-0.001,-0.077, 1.011, 0.059, 0.002, 0.007
 0.001,-0.063, 1.003, 0.077, 0.003, 0.004
 0.005,-0.033, 0.999, 0.060,-0.003,-0.002
-0.001,-0.023, 1.000, 0.018,-0.001,-0.000
 0.003,-0.045, 1.005,-0.013, 0.029, 0.005
-0.003,-0.034, 1.000, 0.010,-0.000,-0.002
-0.003,-0.043, 0.984, 0.003, 0.001, 0.002
-0.001,-0.044, 1.006, 0.001,-0.002, 0.000
 0.001,-0.044, 1.005, 0.005,-0.001,-0.006
-0.001,-0.039, 0.998, 0.000, 0.002,-0.002
 0.003,-0.041, 1.012, 0.003, 0.002, 0.002
 0.002,-0.040, 0.999, 0.001,-0.037,-0.003
 0.003,-0.038, 0.994,-0.001, 0.003,-0.001
-0.001,-0.042, 1.005, 0.006,-0.001,-0.005
 0.002,-0.041, 1.000, 0.004, 0.003,-0.004
-0.000,-0.042, 0.999, 0.001, 0.002,-0.001
-0.003,-0.045, 1.003, 0.002,-0.003, 0.000
-0.002,-0.042, 1.006, 0.004,-0.002,-0.000
-0.002,-0.045, 1.002,-0.002, 0.001,-0.006
-0.003,-0.045, 0.991, 0.005,-0.004,-0.001
 0.002,-0.036, 0.997,-0.001,-0.003,-0.003
 0.000,-0.040, 0.995, 0.005, 0.005, 0.003
-0.002,-0.040, 1.006, 0.005,-0.000,-0.001
-0.004,-0.039, 0.982, 0.004, 0.001,-0.002
 0.001,-0.041, 1.001, 0.007, 0.000,-0.003
-0.003,-0.042, 1.000, 0.008,-0.001, 0.001
-0.002,-0.042, 1.003, 0.006, 0.004,-0.003
 0.001,-0.041, 1.001,-0.000, 0.001,-0.004
-0.001,-0.041, 1.011,-0.000,-0.005, 0.004
 0.002,-0.040, 1.004, 0.005,-0.002, 0.005
-0.002,-0.041, 0.995,-0.000, 0.003, 0.008
 0.002,-0.041, 1.000, 0.003, 0.006, 0.004
-0.004,-0.041, 1.004, 0.014,-0.001,-0.002
-0.002,-0.030, 1.002,-0.012,-0.001, 0.002
-0.001,-0.046, 0.983,-0.010,-0.003,-0.001
 0.002,-0.051, 1.019,-0.005,-0.003,-0.009
 0.002,-0.030, 1.007,-0.003, 0.000,-0.003
 0.003,-0.038, 0.994,-0.016, 0.005, 0.002
 0.000,-0.051, 1.007, 0.023,-0.003,-0.008
 0.006,-0.020, 1.003, 0.006, 0.000, 0.002
-0.001,-0.046, 1.000, 0.007, 0.001,-0.001
-0.001,-0.048, 1.004,-0.003, 0.001,-0.001
-0.001,-0.049, 0.998, 0.056, 0.031,-0.000
-0.001,-0.044, 1.004, 0.070, 0.001,-0.003
-0.002,-0.019, 1.006, 0.058, 0.001,-0.001
-0.005,-0.025, 1.003, 0.019,-0.002,-0.000
-0.001,-0.034, 1.009,-0.000, 0.000, 0.006
-0.002,-0.040, 1.002, 0.003,-0.002,-0.003
-0.002,-0.037, 1.003, 0.012, 0.003, 0.002
 0.001,-0.034, 0.997,-0.007, 0.002, 0.003
-0.000,-0.040, 1.002, 0.002,-0.000, 0.001
 0.003,-0.040, 1.000, 0.006,-0.002, 0.001
-0.002,-0.037, 0.999,-0.003,-0.001, 0.001
 0.001,-0.042, 1.000, 0.007, 0.002, 0.000
 0.003,-0.036, 0.997, 0.000,-0.000,-0.003
-0.001,-0.037, 0.984, 0.004, 0.001,-0.001
-0.004,-0.040, 1.000, 0.006,-0.002,-0.003
-0.001,-0.041, 1.004, 0.002, 0.001,-0.001
-0.001,-0.037, 0.997, 0.005, 0.003, 0.002
 0.004,-0.040, 0.998, 0.008, 0.003,-0.004
-0.000,-0.039, 0.995, 0.028, 0.001, 0.003
 0.003,-0.064, 1.006, 0.018, 0.005, 0.005
-0.000,-0.029, 0.994,-0.002, 0.005, 0.005
-0.003,-0.047, 1.013, 0.009, 0.001,-0.002
-0.002,-0.039, 0.998,-0.003,-0.001, 0.005
-0.007,-0.034, 0.994, 0.003,-0.001,-0.001
